Time,GyroX,GyroY,GyroZ,PosX,PosY,PosZ,TorPie,TorThe,
Started:
3.3554432E7,-0.2814574,1.0606643,-1.4700392,0.0,0.0,0.6000000238418579,0.0,0.0,
3.3554432E7,-0.85139465,0.89267635,-1.8939798,0.0,0.0,0.6000000238418579,NaN,NaN,
3.3554432E7,-0.6076594,0.48217487,-2.1163347,0.0,0.0,0.6000000238418579,NaN,NaN,
3.3554432E7,-0.41584775,0.04357363,-2.1627605,6.117994765541881E-4,-0.04351177277583598,0.5984199026950345,5714.403609753712,-1375.2378308336138,
3.3554432E7,-0.27168354,-0.43290126,-2.1792538,0.0018395048961313406,-0.08690161051439448,0.5936705777802802,4302.482617118175,-547.6228225056143,
3.3554432E7,-0.27168354,-0.3864755,-2.4700255,0.0018395048961313406,-0.08690161051439448,0.5936705777802802,NaN,NaN,
3.3554432E7,-0.4622735,0.22011368,-2.7131503,0.0052337015801824085,-0.14048879377351198,0.5832971248018143,-5638.792132344071,-7213.314287191166,
3.3554432E7,-0.9020965,1.1467962,-2.8664773,0.0052337015801824085,-0.14048879377351198,0.5832971248018143,NaN,NaN,
3.3554432E7,-1.0621432,1.646484,-3.0277457,0.018243502053900972,-0.20016076497704074,0.5653343005751953,-5002.044142718991,-5036.6070269255,
3.3554432E7,-0.7860321,1.6348776,-3.1633577,0.038264956825997384,-0.2595427593232182,0.5396048348302901,7762.648878132175,-3161.798912312406,
3.3554432E7,-0.4427258,1.3642642,-3.294694,0.038264956825997384,-0.2595427593232182,0.5396048348302901,NaN,NaN,
3.3554432E7,-0.16905819,1.184059,-3.3716629,0.059372848029479286,-0.3167909296560603,0.506081416784639,7741.8025734536395,-1098.39428387774,
3.3554432E7,-0.16905819,1.2439238,-3.312409,0.059372848029479286,-0.3167909296560603,0.506081416784639,NaN,NaN,
3.3554432E7,-0.10247387,1.2555302,-3.2464354,0.08597150458443556,-0.3651050535416436,0.46830249720460815,2314.188705651875,2299.6718373976123,
3.3554432E7,-0.10247387,1.1639005,-3.230553,0.08597150458443556,-0.3651050535416436,0.46830249720460815,NaN,NaN,
3.3554432E7,-0.10247387,0.99652344,-3.2171137,0.11636329448299546,-0.40583972632463416,0.42632584820069236,87.29683700229891,390.88938942375546,
3.3554432E7,-0.052382916,0.81631815,-3.1926792,0.14892554724004767,-0.43899161650877483,0.3809298762561099,1625.6025636071513,1071.2413067442699,
3.3554432E7,-0.052382916,0.7784445,-3.2110052,0.14892554724004767,-0.43899161650877483,0.3809298762561099,NaN,NaN,
3.3554432E7,-0.0016811012,0.7167471,-3.2409375,0.183597975974893,-0.4650203368244779,0.3317346803814787,1216.879482130885,-454.72013304178813,
3.3554432E7,-0.0016811012,0.5744155,-3.2140596,0.2186399892348678,-0.48348602395106594,0.2800675782049686,229.3908965052447,767.4751201226701,
3.3554432E7,-0.13790405,0.5017226,-3.0741713,0.2186399892348678,-0.48348602395106594,0.2800675782049686,NaN,NaN,
3.3554432E7,-0.23503163,0.4797314,-2.9507766,0.25525343308757525,-0.4921654701053951,0.22938801961561153,-1649.9956993076757,2632.5484063721756,
3.3554432E7,-0.23503163,0.545094,-2.8457077,0.25525343308757525,-0.4921654701053951,0.22938801961561153,NaN,NaN,
3.3554432E7,-0.14706703,0.60373706,-2.7443042,0.29141954111709567,-0.4917785819525641,0.18228687829368517,3452.9131213028004,3703.659442135018,
3.3554432E7,-0.04016561,0.57013947,-2.6661136,0.29141954111709567,-0.4917785819525641,0.18228687829368517,Infinity,Infinity,
3.3554432E7,-0.04016561,0.5353201,-2.6154115,0.32347697317252844,-0.4862873788333506,0.13743093401690426,510.68175264659686,1422.1274832910563,
3.3554432E7,-0.04016561,0.5347093,-2.605027,0.3547811812098802,-0.47488840860576237,0.0927973137619763,109.80425501639542,289.3499060218511,
3.3554432E7,-0.11285857,0.64283246,-2.6612265,0.3547811812098802,-0.47488840860576237,0.0927973137619763,-Infinity,-Infinity,
3.3554432E7,-0.047495995,0.81692904,-2.731476,0.3916078338949807,-0.451958767823951,0.04875043824795061,1005.4272092307224,-1195.5148494411371,
3.3554432E7,0.13942876,0.8407527,-2.64962,0.3916078338949807,-0.451958767823951,0.04875043824795061,Infinity,Infinity,
3.3554432E7,0.13942876,0.7668381,-2.5060666,0.4215362666110298,-0.42682417622979213,0.011328156408890051,1728.2272555769428,3913.625112691075,
3.3554432E7,0.13942876,0.75034475,-2.322807,0.4482766742530712,-0.3982435582445156,-0.021216037508994614,2331.3204812189915,4938.984112211675,
3.3554432E7,0.13942876,0.83953106,-2.0815153,0.4482766742530712,-0.3982435582445156,-0.021216037508994614,NaN,NaN,
3.3554432E7,0.19929357,0.9158892,-1.8237302,0.473382217784003,-0.3664666442924271,-0.04014353144874758,5080.561228487656,7654.239813382606,
3.3554432E7,0.35750765,0.8236486,-1.6135926,0.473382217784003,-0.3664666442924271,-0.04014353144874758,Infinity,Infinity,
3.3554432E7,0.45463523,0.6819278,-1.4675958,0.4885742775292628,-0.34439624410313213,-0.05183079195463604,4613.160766102311,5203.644942093566,
3.3554432E7,0.54443246,0.61961955,-1.3270968,0.5007902611486954,-0.3250299179824458,-0.05970506984483106,4392.370135645356,4962.303751678174,
3.3554432E7,0.7209725,0.67581916,-1.1102396,0.5115865847859211,-0.3077739890042814,-0.05961850861687237,7830.038498001866,8245.989182634778,
3.3554432E7,0.940884,0.93726945,-0.709512,0.5115865847859211,-0.3077739890042814,-0.05961850861687237,Infinity,Infinity,
3.3554432E7,0.8730779,0.90733707,-0.3863643,0.5115865847859211,-0.3077739890042814,-0.05961850861687237,NaN,NaN,
3.3554432E7,0.5627584,0.6355021,-0.1811136,0.5191668632042489,-0.2974440527872837,-0.044641149429270596,-4592.206177982747,276.4711819521706,
3.3554432E7,0.31535798,0.42108834,0.013752409,0.5237901631362986,-0.29083373550888236,-0.032551987678623356,-3042.0111020673544,877.3508995650543,
3.3554432E7,0.2304477,0.3025805,0.21655968,0.5237901631362986,-0.29083373550888236,-0.032551987678623356,NaN,NaN,
3.3554432E7,0.1406505,0.29219577,0.52810097,0.5249183946008511,-0.29017424172290146,-0.016112636669224356,2880.6788853979338,6275.032625021912,
3.3554432E7,-0.0047354274,0.15230764,0.8933984,0.5249183946008511,-0.29017424172290146,-0.016112636669224356,NaN,NaN,
3.3554432E7,-0.21365133,-0.04439097,1.1634008,0.5198559842721475,-0.2995826329379556,1.7397881742634992E-4,-779.2407086367188,3300.7002387813345,
3.3554432E7,-0.41951293,-0.1916095,1.3949187,0.5124872869061328,-0.31164441868926085,0.015315536871227576,-1392.2396296109705,2449.825461092445,
3.3554432E7,-0.41951293,-0.32783243,1.7644922,0.5124872869061328,-0.31164441868926085,0.015315536871227576,NaN,NaN,
3.3554432E7,-0.34376562,-0.32783243,2.0296078,0.4976081254898398,-0.33285678378089434,0.03990668550201763,6133.89333879957,7883.123353979622,
3.3554432E7,-0.22709037,-0.53674835,2.2330258,0.47538756971889207,-0.35999351179250944,0.06641805954928198,6121.0850942840725,6986.454168232973,
3.3554432E7,-0.15745173,-0.59294796,2.4168963,0.47538756971889207,-0.35999351179250944,0.06641805954928198,Infinity,Infinity,
3.3554432E7,-0.15745173,-0.5923371,2.6245906,0.44636939617160587,-0.3881024033662708,0.10065244792328953,3110.703799553738,5351.336504289157,
3.3554432E7,-0.15745173,-0.6179934,2.8139586,0.44636939617160587,-0.3881024033662708,0.10065244792328953,NaN,NaN,
3.3554432E7,-0.10736079,-0.7340578,2.9617882,0.4091595144828335,-0.4157659154812464,0.14045363591749066,3428.312679630369,4580.483078737223,
3.3554432E7,-0.10736079,-0.87944376,3.207356,0.4091595144828335,-0.4157659154812464,0.14045363591749066,NaN,NaN,
3.3554432E7,-0.018785328,-1.0834727,3.524395,0.3575410522848366,-0.4435773079141894,0.18815843442397734,6600.499721893824,9627.934206952843,
3.3554432E7,0.11804848,-1.2068676,3.8609817,0.3575410522848366,-0.4435773079141894,0.18815843442397734,Infinity,Infinity,
3.3554432E7,0.3232992,-1.3485882,4.069287,0.28970141133022287,-0.4636437585362006,0.24719948635450753,8117.683371039998,8163.644827049794,
3.3554432E7,0.51877606,-1.5715541,4.227501,0.21564135025846376,-0.4667486497532249,0.309264505920867,7130.939956143593,6493.682193640759,
3.3554432E7,0.66538376,-1.8409457,4.380828,0.21564135025846376,-0.4667486497532249,0.309264505920867,Infinity,Infinity,
3.3554432E7,0.7606787,-2.0901787,4.5188837,0.13562932487021406,-0.44946555761681845,0.373611331950307,3921.145700112245,4766.063770230487,
3.3554432E7,0.9353862,-2.2312887,4.610513,0.13562932487021406,-0.44946555761681845,0.373611331950307,Infinity,Infinity,
3.3554432E7,1.1479673,-2.351629,4.711306,0.06148227511578903,-0.4057509474540365,0.4377055255499617,6835.975316772934,4305.960563604374,
3.3554432E7,1.3965895,-2.442648,4.7962165,0.006515503688164698,-0.33875690559416427,0.4951780848686521,7685.05980818214,3515.796873635703,
3.3554432E7,1.684307,-2.5073996,4.9037285,0.006515503688164698,-0.33875690559416427,0.4951780848686521,Infinity,Infinity,
3.3554432E7,1.833969,-2.6204097,5.005132,-0.026716298440828627,-0.2541749881224573,0.5428455981407598,4601.968923075993,3235.4050094931567,
3.3554432E7,2.0752606,-2.946001,5.140134,-0.0349724750921497,-0.16428398771213204,0.5760101787100286,6980.106053144121,3657.4582317431978,
3.3554432E7,2.396576,-3.1695776,5.209772,-0.0349724750921497,-0.16428398771213204,0.5760101787100286,NaN,NaN,
3.3554432E7,2.826625,-3.2923615,5.16579,-0.02611442108786643,-0.08339405776900018,0.5936021367467408,12861.086072789449,-3344.2938451902746,
3.3554432E7,3.2792761,-3.3192396,5.147464,-0.02611442108786643,-0.08339405776900018,0.5936021367467408,Infinity,-Infinity,
3.3554432E7,3.7050493,-3.3693306,5.047282,-0.010355127349268049,-0.025818773225095622,0.5993548121913777,13023.699975901782,-6304.628115279688,
3.3554432E7,4.200461,-3.3467286,4.829814,0.0010199107115337208,0.0022320455342643335,0.5999950052834636,16118.125231811135,-11563.088673379463,
3.3554432E7,4.8504214,-3.3900998,4.829814,0.0010199107115337208,0.0022320455342643335,0.5999950052834636,NaN,NaN,
3.3554432E7,5.3721004,-3.3418415,4.482843,-0.004658220375676568,-0.00928363872336206,0.5999101129712816,18598.496101526016,-16512.41497598481,
3.3554432E7,5.5761294,-3.2196684,4.4657383,-0.004658220375676568,-0.00928363872336206,0.5999101129712816,Infinity,-Infinity,
3.3554432E7,5.763665,-3.1561384,4.300194,-0.025882476602555642,-0.05132198542556905,0.5972404706875832,7402.188608557534,-7235.035070930211,
3.3554432E7,6.112469,-3.1921797,4.19879,-0.025882476602555642,-0.05132198542556905,0.5972404706875832,Infinity,-Infinity,
3.3554432E7,6.631705,-3.2447138,4.0979977,-0.0636201572385159,-0.13571876030212282,0.5809758362490057,13670.231702767562,-12393.420093204451,
3.3554432E7,6.997613,-3.3375654,3.854262,-0.09779826685865099,-0.26007554306823744,0.5317858963036116,12735.499948124518,-12938.988899791288,
3.3554432E7,6.830847,-3.049237,3.401611,-0.09779826685865099,-0.26007554306823744,0.5317858963036116,NaN,NaN,
3.3554432E7,6.471047,-2.328416,2.8206782,-0.11464903729297903,-0.3742944242306816,0.45470794016362387,6954.932407611233,-2300.69050249695,
3.3554432E7,6.471047,-1.7658092,2.4107876,-0.11464903729297903,-0.3742944242306816,0.45470794016362387,NaN,NaN,
3.3554432E7,6.9169784,-1.3559186,2.0198338,-0.1403964248312463,-0.46226517764292363,0.35580862558908044,17213.63839635432,-17590.014787380413,
3.3554432E7,7.2242436,-0.9472498,1.5641284,-0.17401765772648392,-0.5234193547091981,0.2361145114672647,16379.813697672746,-15167.929145751388,
3.3554432E7,7.2242436,-0.25636122,0.87751585,-0.17401765772648392,-0.5234193547091981,0.2361145114672647,NaN,NaN,
3.3554432E7,6.997613,0.18101831,0.60873514,-0.2538059561119107,-0.5256011884347618,0.1390178260811,2832.5040974278863,1087.603243877723,
3.3554432E7,6.9463005,0.3887125,0.47312307,-0.2538059561119107,-0.5256011884347618,0.1390178260811,NaN,NaN,
3.3554432E7,6.9463005,0.6275608,0.34911743,-0.35071451171195855,-0.48340664789075466,0.05759663757457146,3012.9803045998024,-2140.0524809187427,
3.3554432E7,6.8290143,1.0747141,0.17868602,-0.45406412552288916,-0.39220333148783054,0.0015314350168819627,1906.7406635676484,-313.7510337082925,
3.3554432E7,6.669578,1.5389718,-0.10719891,-0.45406412552288916,-0.39220333148783054,0.0015314350168819627,NaN,NaN,
3.3554432E7,6.4050736,1.854789,-0.3600971,-0.5555343051769349,-0.22662559002698168,-0.00474408333956173,513.2956422478338,1001.2798298356627,
3.3554432E7,6.163171,1.8981606,-0.4938766,-0.5993342614549911,-0.027459743642152708,0.006665893453817384,-2232.4278113387495,2324.5527608649936,
3.3554432E7,6.163171,1.8431826,-0.54396755,-0.5993342614549911,-0.027459743642152708,0.006665893453817384,NaN,NaN,
3.3554432E7,6.2267013,1.8529565,-0.6893535,-0.5712159519640098,0.18184920868566448,0.02536198202976074,4298.432425869038,-4492.757296671269,
3.3554432E7,5.998237,2.0740895,-0.8237438,-0.5712159519640098,0.18184920868566448,0.02536198202976074,NaN,NaN,
3.3554432E7,5.6677594,2.262236,-0.999673,-0.4529776986591343,0.38347498745091,0.08808045825964525,-4635.801548094545,1821.0392938518237,
3.3554432E7,5.4118066,2.2915576,-1.2000369,-0.4529776986591343,0.38347498745091,0.08808045825964525,NaN,NaN,
3.3554432E7,5.3226204,2.2830057,-1.3832964,-0.2634873191335733,0.5131955306590865,0.16493880252254503,748.8635859934316,-3129.856042367171,
3.3554432E7,5.162574,2.0826418,-1.5879363,-0.2634873191335733,0.5131955306590865,0.16493880252254503,NaN,NaN,
3.3554432E7,4.992753,2.0411031,-1.8011281,-0.06158435885450737,0.5496889307294492,0.2324854291955176,-1331.0226722769403,-3089.1168320883294,
3.3554432E7,4.845535,2.159,-1.9037535,0.12507315474670236,0.49474562972360697,0.31556852891460696,-2687.2121918562207,-921.581921289732,
3.3554432E7,4.753294,2.0765333,-1.9385729,0.24778761630923912,0.37655079785724466,0.3959934626317559,-2195.697183499819,14.613647260530715,
3.3554432E7,4.4496937,2.0166683,-2.0668547,0.24778761630923912,0.37655079785724466,0.3959934626317559,NaN,NaN,
3.3554432E7,3.954893,1.9305364,-2.0509722,0.2864164334429539,0.24464391253957204,0.4670278485501461,-14223.001514026679,4825.913541651553,
3.3554432E7,3.2102482,2.2872818,-1.8664908,0.2864164334429539,0.24464391253957204,0.4670278485501461,-Infinity,Infinity,
3.3554432E7,2.781421,2.7765846,-1.67529,0.18151910616483918,0.08585203973373232,0.5654027502417243,-13681.215925065057,8214.246567936647,
3.3554432E7,2.8510597,3.0068808,-1.6038188,0.18151910616483918,0.08585203973373232,0.5654027502417243,NaN,NaN,
3.3554432E7,3.012939,3.0068808,-1.6545206,-0.029095717649963958,-0.006038112072777989,0.5992637224355069,4958.239993398857,-2017.988871646052,
3.3554432E7,2.876105,1.6929098,-1.6539097,-0.029095717649963958,-0.006038112072777989,0.5992637224355069,-Infinity,Infinity,
3.3554432E7,2.3580914,1.3050103,-1.6380272,-0.11414605693621181,-0.009307750737209861,0.5889686511796355,-15437.039189933144,1448.8326099229303,
3.3554432E7,1.8101453,1.7203987,-1.5586147,-0.23904786984767848,0.0040941387714815,0.5503084431109859,-16342.983035658079,2457.5099190066376,
3.3554432E7,1.3403898,1.7802635,-1.4749261,-0.23904786984767848,0.0040941387714815,0.5503084431109859,-Infinity,Infinity,
3.3554432E7,1.0331247,1.2567519,-1.3606943,-0.3204185658749595,0.020982334310558688,0.506844860780638,-9026.49209798734,3066.968720789429,
3.3554432E7,0.8675801,0.7888292,-1.280671,-0.3204185658749595,0.020982334310558688,0.506844860780638,NaN,NaN,
3.3554432E7,0.7710634,0.7888292,-1.094968,-0.36399887877340564,0.033925806261393535,0.4757666282238047,-2521.86068033889,5342.0706104367555,
3.3554432E7,0.6391165,0.42780787,-0.86894786,-0.38228201191006317,0.04311060487784648,0.46043671413918613,-3399.5098399445124,6411.572676149015,
3.3554432E7,0.6391165,-0.1158622,-0.67224926,-0.38228201191006317,0.04311060487784648,0.46043671413918613,NaN,NaN,
3.3554432E7,0.50228274,-0.5495765,-0.5177004,-0.33183117638080445,0.04276710218390337,0.49805529207383503,-3799.336774656145,4357.494135303372,
3.3554432E7,0.18157847,-0.74994034,-0.35948628,-0.33183117638080445,0.04276710218390337,0.49805529207383503,NaN,NaN,
3.3554432E7,-0.24724893,-0.547133,-0.1847788,-0.283911378709443,0.03377760008201695,0.5274973283176254,-12558.021350571302,4683.293724633208,
3.3554432E7,-0.49648196,-0.40357974,-0.13285525,-0.247063020518752,0.0247335832886429,0.5462125432101359,-7383.087473544866,1345.7033186310675,
3.3554432E7,-0.43844974,-0.40357974,-0.11147497,-0.247063020518752,0.0247335832886429,0.5462125432101359,Infinity,Infinity,
3.3554432E7,-0.38041756,-0.40357974,0.041241344,-0.21222530586218777,0.017941503157582982,0.5609265108963717,1790.9818691652956,4574.308873131341,
3.3554432E7,-0.38041756,-0.79209,0.19395766,-0.21222530586218777,0.017941503157582982,0.5609265108963717,NaN,NaN,
3.3554432E7,-0.38041756,-0.6503693,0.3020808,-0.1588579389664282,0.010382398307830732,0.5784949348464049,-26.672512295328886,3222.2106849198863,
3.3554432E7,-0.38041756,-0.5117029,0.35583696,-0.11828500604184361,0.00538870407652018,0.5882003466713419,-40.76383921585433,1601.539346583183,
3.3554432E7,-0.30283767,-0.4493946,0.4218104,-0.11828500604184361,0.00538870407652018,0.5882003466713419,NaN,NaN,
3.3554432E7,-0.21487308,-0.45794675,0.45235366,-0.08411985480713075,0.0025546909676811974,0.5940684743289422,2582.2254323348807,802.5372275163463,
3.3554432E7,-0.15928434,-0.44206423,0.47801,-0.08411985480713075,0.0025546909676811974,0.5940684743289422,NaN,NaN,
3.3554432E7,-0.15928434,-0.38158858,0.50427717,-0.05799597484058157,9.83236415806999E-4,0.5971896924417495,-41.952925529993955,781.6977195284217,
3.3554432E7,-0.2900095,-0.22215275,0.43524942,-0.04583070463423658,7.768946939722364E-5,0.5982470802998588,-3763.092257795865,-1815.569695374922,
3.3554432E7,-0.2900095,-0.16717488,0.32040676,-0.04583070463423658,7.768946939722364E-5,0.5982470802998588,NaN,NaN,
3.3554432E7,-0.35903725,-0.25513947,0.2232792,-0.02640460794700452,-4.3916149700148693E-4,0.5994185786464868,-1850.8037406184492,-2744.4803855069777,
3.3554432E7,-0.35903725,-0.21726583,0.15852746,-0.02640460794700452,-4.3916149700148693E-4,0.5994185786464868,NaN,NaN,
3.3554432E7,-0.41340426,-0.14884892,0.13531458,-0.015514871048372186,-5.334586457321204E-4,0.5997991603932568,-1564.174176451721,-569.0684766593536,
3.3554432E7,-0.32543966,-0.037671447,0.13287114,-0.015514871048372186,-5.334586457321204E-4,0.5997991603932568,Infinity,-Infinity,
3.3554432E7,-0.24724893,-0.10669922,0.088277966,-0.00750807903336491,-3.4196549387902894E-4,0.5999529485043471,2426.972909927805,-1506.9765296301782,
