Time,GyroX,GyroY,GyroZ,PosX,PosY,PosZ,TorPie,TorThe,
Started:
0.0,-0.5780727,-0.24356785,-0.81627786,0.0,0.0,0.6000000238418579,0.0,0.0,
0.0,-0.8279167,-0.2814415,-0.81627786,0.0,0.0,0.6000000238418579,NaN,NaN,
0.0,-0.9128269,-0.38956463,-1.1296518,0.0,0.0,0.6000000238418579,NaN,NaN,
0.0,-0.9128269,-0.4518729,-1.2151729,7.253761445021523E-4,-0.02416578114582924,0.5995127333604274,38.64318529915235,-2548.434485189668,
0.0,-0.99712634,-0.27288938,-1.2909201,7.253761445021523E-4,-0.02416578114582924,0.5995127333604274,NaN,NaN,
0.0,-1.2237573,0.050869193,-1.3636131,0.0036127448281545143,-0.05114430746474788,0.5978053500086696,-6724.367241638405,-2075.3467291322168,
0.0,-1.2237573,0.3251477,-1.5529814,0.0036127448281545143,-0.05114430746474788,0.5978053500086696,NaN,NaN,
0.0,-1.0869236,0.45465112,-1.8388662,0.009602027870316875,-0.08820806275083999,0.593403039541214,4062.6174892110944,-8512.678102661323,
0.0,-0.9549766,0.4216644,-2.111923,0.018858215432433507,-0.13034428808182313,0.5853672034589713,3802.044748796394,-8073.976902544251,
0.0,-0.9549766,0.63546723,-2.3409975,0.018858215432433507,-0.13034428808182313,0.5853672034589713,NaN,NaN,
0.0,-0.9549766,0.87431556,-2.325115,0.03319412738733382,-0.1768631629243158,0.5723788955907009,21.42812067173941,472.8498691816111,
0.0,-0.830971,0.9329586,-2.401473,0.03319412738733382,-0.1768631629243158,0.5723788955907009,NaN,NaN,
0.0,-0.75461286,1.1168292,-2.4943247,0.052376298924717346,-0.22534251226961097,0.5536041041079798,2039.1078292697903,-2569.6040794916107,
0.0,-0.75461286,1.4784613,-2.4759989,0.07851357423929695,-0.2708275059502569,0.5296112813103249,72.08286238834364,541.3738048997919,
0.0,-0.4882756,1.4882351,-2.4729443,0.07851357423929695,-0.2708275059502569,0.5296112813103249,Infinity,Infinity,
0.0,-0.2365991,1.3459035,-2.5059311,0.10469414955468057,-0.31176932546495745,0.5018356816313261,7209.044326326288,356.95752701738115,
0.0,-0.11076087,1.2438891,-2.5181484,0.1332403555075992,-0.3471191848928672,0.4709090227992559,3581.280040664141,460.35727264642406,
0.0,-0.11076087,1.1308789,-2.5737371,0.1332403555075992,-0.3471191848928672,0.4709090227992559,NaN,NaN,
0.0,-0.038678765,1.030697,-2.6177194,0.1638407131086848,-0.3778110590647827,0.43636573305727727,1750.1865812373826,-729.2737240820036,
0.0,0.07494217,0.97266483,-2.6397107,0.1638407131086848,-0.3778110590647827,0.43636573305727727,NaN,NaN,
0.0,0.19711521,0.9555606,-2.6134434,0.19342887418656574,-0.40267713168441516,0.40054516207234353,3714.013045198262,1777.9530429798913,
0.0,0.25820175,0.9873256,-2.5664067,0.19342887418656574,-0.40267713168441516,0.40054516207234353,Infinity,Infinity,
0.0,0.25820175,0.9873256,-2.5260897,0.22389846940831562,-0.4203131667289887,0.3649744455178923,376.8759836047339,1140.9064885148202,
0.0,0.13358523,0.97755176,-2.4650033,0.25751024037132353,-0.43054275088568844,0.3291222331808006,-2858.934634165855,429.07342108505884,
0.0,0.06822265,0.9806061,-2.3788712,0.25751024037132353,-0.43054275088568844,0.3291222331808006,NaN,NaN,
0.0,0.119535334,0.9702214,-2.3086216,0.29112038491270864,-0.43343235407222175,0.2956101225295213,2202.747663073718,2514.2862277455624,
0.0,0.23498887,0.94395417,-2.2420373,0.29112038491270864,-0.43343235407222175,0.2956101225295213,Infinity,Infinity,
0.0,0.35716194,0.8956958,-2.0557234,0.31836119384991207,-0.432143925908903,0.26813766270468103,5568.75791650549,6548.697904436136,
0.0,0.43962872,0.8755373,-1.8797942,0.3427166345475143,-0.42709695560842836,0.24522138472137317,4470.995032931819,5790.454593623452,
0.0,0.43962872,0.9525063,-1.7368518,0.3427166345475143,-0.42709695560842836,0.24522138472137317,NaN,NaN,
0.0,0.43962872,1.0649055,-1.595131,0.3665865930704554,-0.41562528782716196,0.22993459615685313,1948.7512386030828,3747.16349323647,
0.0,0.51109993,1.0856749,-1.4766232,0.3882919155244179,-0.40124704473226414,0.21961381113726153,3595.2846756919794,4122.923060689741,
0.0,0.66198367,1.0111494,-1.4466908,0.3882919155244179,-0.40124704473226414,0.21961381113726153,Infinity,Infinity,
0.0,0.8244738,0.8089529,-1.4711254,0.40226079377401447,-0.3915510440328822,0.21183498842091658,3769.330721242691,1879.3654428946143,
0.0,0.8244738,0.554833,-1.4631841,0.40226079377401447,-0.3915510440328822,0.21183498842091658,NaN,NaN,
0.0,0.75178087,0.39051026,-1.4057628,0.41193336438681466,-0.3871105962110307,0.20113756043148726,-936.2590362397929,309.43487938355685,
0.0,0.6320513,0.26833722,-1.3245177,0.41193336438681466,-0.3871105962110307,0.20113756043148726,NaN,NaN,
0.0,0.53553456,0.16510099,-1.2102859,0.41984083874000216,-0.3846706863089309,0.18910886238073982,-620.838261210581,1348.8841634744433,
0.0,0.39320296,0.0044434336,-1.0972759,0.4263970536534654,-0.38396472207410676,0.1753758063372134,-1795.0110160246643,589.9281764600998,
0.0,0.31989914,-0.07008212,-0.9732702,0.4263970536534654,-0.38396472207410676,0.1753758063372134,NaN,NaN,
0.0,0.31989914,-0.11650788,-0.86820143,0.4297668500392445,-0.38573911824734497,0.1628060682878141,1658.0510895354626,2656.286820337062,
0.0,0.31989914,-0.21791151,-0.70815474,0.4297668500392445,-0.38573911824734497,0.1628060682878141,NaN,NaN,
0.0,0.25270393,-0.26678073,-0.4656412,0.42763302770313916,-0.39173940583451977,0.1538514223011724,2063.7665615583574,5119.9646826631415,
0.0,0.14396994,-0.2783872,-0.18647578,0.42368877231577107,-0.39816040681098214,0.14817605498830774,1495.6953097189235,5471.778572908713,
0.0,0.08166169,-0.2600612,0.06275724,0.42368877231577107,-0.39816040681098214,0.14817605498830774,NaN,NaN,
0.0,0.08166169,-0.30831957,0.37185505,0.41438074151487714,-0.40686154794053864,0.15083869025962598,4651.997701985402,7950.898437670359,
0.0,-0.08632626,-0.3113739,0.6290293,0.41438074151487714,-0.40686154794053864,0.15083869025962598,NaN,NaN,
0.0,-0.23965342,-0.2515091,0.8721537,0.4051693341719053,-0.4127033177329064,0.1597304316314728,-357.18183488034236,4010.2818498486813,
0.0,-0.35510695,-0.23257229,1.0920652,0.3955648576539742,-0.4171935277316463,0.17169167836049995,219.77317602827551,4020.639871542967,
0.0,-0.35510695,-0.29121533,1.2631074,0.3955648576539742,-0.4171935277316463,0.17169167836049995,NaN,NaN,
0.0,-0.268975,-0.29121533,1.4353715,0.38023100517001873,-0.42358369725933087,0.18973998717651178,4725.012888431671,5735.312339792898,
0.0,-0.16696046,-0.723708,1.6693329,0.38023100517001873,-0.42358369725933087,0.18973998717651178,Infinity,Infinity,
0.0,-0.0979327,-0.9937104,1.9484982,0.34666658378472426,-0.44201057969779095,0.21082920986543027,5602.209195794634,8349.269759086264,
0.0,0.029738141,-1.2527173,2.3058546,0.3033176326281681,-0.45953245952740385,0.23838699836142196,7881.940794474001,11268.622388626565,
0.0,0.24598444,-1.811659,2.8006554,0.3033176326281681,-0.45953245952740385,0.23838699836142196,Infinity,Infinity,
0.0,0.24598444,-2.3247857,3.1433506,0.23252778691156067,-0.479006761894762,0.27655628538027605,3501.916209635278,9593.970950664469,
0.0,0.16718282,-2.6656485,3.4310682,0.23252778691156067,-0.479006761894762,0.27655628538027605,NaN,NaN,
0.0,0.07005525,-2.727346,3.7468855,0.1583007685238781,-0.4777354028464323,0.32666462949351704,-392.7176100767653,8359.564545950958,
0.0,-0.05333953,-2.5330908,3.9722948,0.09881837301736039,-0.4506963091502746,0.3835463396810769,-2462.7380558286136,5982.143731091491,
0.0,-0.05333953,-2.504991,4.1482244,0.09881837301736039,-0.4506963091502746,0.3835463396810769,NaN,NaN,
0.0,0.054783616,-2.5532494,4.199537,0.051588743108503435,-0.4017326235941658,0.4426618679476054,3344.004837272049,1805.901491381054,
0.0,0.29546455,-2.6332726,4.3180447,0.051588743108503435,-0.4017326235941658,0.4426618679476054,Infinity,Infinity,
0.0,0.48238927,-2.7823238,4.593545,0.01447796090838144,-0.3304684091405574,0.5005807105934812,5525.074984319281,8179.462354547869,
0.0,0.7731611,-3.1244085,4.8574386,-0.006173890122219132,-0.24256376389067769,0.5487483322418177,7746.468204182285,6862.059651209156,
0.0,1.1830517,-3.7890298,5.12683,-0.006173890122219132,-0.24256376389067769,0.5487483322418177,NaN,NaN,
0.0,1.7548215,-4.457927,5.3546824,-0.01422199644373402,-0.1437488175944289,0.5823521622417042,14721.87443645597,2182.020947564477,
0.0,2.2398486,-4.789627,5.5031233,-0.01422199644373402,-0.1437488175944289,0.5823521622417042,NaN,NaN,
0.0,2.7926817,-4.832388,5.6228523,-0.008632026087239286,-0.06054428506155249,0.5968751178280468,13567.57083810787,-3495.1324780466475,
0.0,3.3015325,-4.6436305,5.6839395,-0.0012902289393496487,-0.010054581439276131,0.5999143849847202,11707.427593868197,-6759.747079313226,
0.0,3.6448386,-4.363243,5.764573,-0.0012902289393496487,-0.010054581439276131,0.5999143849847202,NaN,NaN,
0.0,3.9710407,-4.000389,5.7401385,1.9406614793238185E-4,0.0028366897504348183,0.5999932867456269,7834.5660030223735,-6904.063126539354,
0.0,4.219052,-3.448778,5.6442327,1.9406614793238185E-4,0.0028366897504348183,0.5999932867456269,Infinity,-Infinity,
0.0,4.331451,-2.9454248,5.7358627,2.129602514327339E-4,-0.010464000816805635,0.5999087330128369,327.45148155444537,-547.6144966644961,
0.0,4.331451,-2.6974137,5.997924,0.006756609147678278,-0.04334951403206581,0.5983938472914301,-6125.149451845613,4845.524956862862,
0.0,4.331451,-2.6473224,5.8910227,0.006756609147678278,-0.04334951403206581,0.5983938472914301,NaN,NaN,
0.0,4.135974,-2.5208735,5.5012903,0.03124409481634435,-0.096376449930802,0.5913843209352722,6470.003549063115,-1552.903153729856,
0.0,4.135974,-2.5544713,5.103617,0.03124409481634435,-0.096376449930802,0.5913843209352722,NaN,NaN,
0.0,4.328397,-2.7187939,4.8666015,0.09193848088752764,-0.1706943826203622,0.5678122683459536,8937.302888728285,-8396.395920884084,
0.0,4.925823,-3.2972832,4.537956,0.21571466583989587,-0.24643944426550105,0.5027273732968229,15736.277263578515,-20174.500425174003,
0.0,5.4841537,-3.4408367,4.2557364,0.21571466583989587,-0.24643944426550105,0.5027273732968229,Infinity,-Infinity,
0.0,5.4841537,-3.0749283,4.043155,0.3737672881444388,-0.26814982934713755,0.38521904410930036,6089.290506400993,-1748.7106128251849,
0.0,5.4841537,-2.5563037,3.8831084,0.3737672881444388,-0.26814982934713755,0.38521904410930036,NaN,NaN,
0.0,5.829293,-2.0254617,3.7016814,0.49689534023444926,-0.23021231748508378,0.24514758481712184,7447.445967353366,-11192.3979417224,
0.0,6.394954,-1.3211342,3.5727887,0.5709549271929316,-0.1604260711563684,0.09096139520519644,6595.825436216743,-17262.36602498412,
0.0,6.8127856,-0.6449063,3.4261813,0.5709549271929316,-0.1604260711563684,0.09096139520519644,Infinity,-Infinity,
0.0,7.0895076,-0.35779965,3.0156798,0.5871369450567827,-0.1113353712231589,-0.05361596286760237,13362.609656591361,-10040.580980695648,
0.0,7.1805267,-0.096349336,2.6442738,0.5871369450567827,-0.1113353712231589,-0.05361596286760237,Infinity,-Infinity,
0.0,6.9477873,0.29277182,2.476286,0.5677481001864265,-0.09473239133956732,-0.1693750199292107,3797.7897174880245,6018.576366752747,
0.0,6.6741195,0.8113964,2.3699954,0.5342412159608696,-0.10672970090998445,-0.2513864012283613,1549.6891949892852,7399.715518859928,
0.0,6.555611,1.3263558,2.0505128,0.5342412159608696,-0.10672970090998445,-0.2513864012283613,NaN,NaN,
0.0,6.555611,1.4399768,1.636957,0.49281204268487794,-0.16832346425967798,-0.2979992123724641,11969.549432155914,-2938.2949235507904,
0.0,6.3314238,1.3587317,1.0938978,0.49281204268487794,-0.16832346425967798,-0.2979992123724641,NaN,NaN,
0.0,5.9972806,1.320858,0.7353199,0.4373582111611609,-0.23694972341020967,-0.3355184828231741,7455.026340103037,6551.426325082676,
0.0,5.9972806,1.3642294,0.3168772,0.4373582111611609,-0.23694972341020967,-0.3355184828231741,NaN,NaN,
0.0,6.2251334,1.2347261,-0.03131601,0.3568732404842131,-0.3008437102906914,-0.37700740153882595,12006.601071975321,-9759.791712880024,
0.0,6.5391183,1.1479832,-0.439374,0.2558528840376886,-0.34155857350439756,-0.4217547524396948,14700.059249338035,-13081.864976218334,
0.0,6.964891,0.7741337,-0.788178,0.2558528840376886,-0.34155857350439756,-0.4217547524396948,Infinity,-Infinity,
0.0,7.283763,0.24207,-1.2848115,0.15098663589626016,-0.28765276757893116,-0.5044392428183414,17246.537284168335,-14244.437478368609,
0.0,6.8818135,0.3367541,-1.7148606,0.15098663589626016,-0.28765276757893116,-0.5044392428183414,NaN,NaN,
0.0,5.6185446,1.2671019,-1.8388662,0.05281843306149627,-0.2859991150266832,-0.5247997217445074,-11820.165324183243,32950.842906814236,
0.0,4.5990105,2.9237685,-1.6250634,-0.12527048520138703,-0.34942756321353147,-0.47138913035229457,-20481.30822387578,29593.616066139057,
0.0,4.7712746,2.7337892,-1.4173692,-0.12527048520138703,-0.34942756321353147,-0.47138913035229457,NaN,NaN,
0.0,5.0870914,1.5303848,-1.3825499,-0.23961834456704192,-0.2898624389985037,-0.46750705236928686,4163.694072105201,-7393.212740050822,
0.0,5.0870914,0.6403541,-1.5193838,-0.263686971658695,-0.20069287210789874,-0.5001915439836815,3396.3014502877686,-2257.2020245322515,
0.0,4.354053,0.7924596,-1.4925057,-0.263686971658695,-0.20069287210789874,-0.5001915439836815,-Infinity,Infinity,
0.0,3.3180256,1.3043647,-1.3013048,-0.33304013230578633,-0.12443419424440355,-0.4833222839749068,-22802.15187303134,28301.113180163495,
0.0,2.6136982,1.5493217,-1.1308734,-0.33304013230578633,-0.12443419424440355,-0.4833222839749068,-Infinity,Infinity,
0.0,2.175097,1.3813337,-1.0184742,-0.40188336974367733,-0.032724149357543204,-0.4443184846284498,-10797.12874299625,12288.72602179618,
0.0,2.0016112,1.1540918,-0.92012495,-0.40188336974367733,-0.032724149357543204,-0.4443184846284498,-Infinity,Infinity,
0.0,1.6619701,0.717934,-0.5536058,-0.42032627506063114,0.031407329593024794,-0.4270122138203073,-14875.842477174008,14780.100957107503,
0.0,1.1256304,0.4430447,-0.30803797,-0.4257645574887735,0.07412371155677507,-0.41620937709483063,-16010.350060082725,16864.45801248427,
0.0,0.63938165,0.3269803,-0.5743752,-0.4257645574887735,0.07412371155677507,-0.41620937709483063,NaN,NaN,
0.0,0.51232165,0.4216644,-0.6079728,-0.43016797861700146,0.11491502145104267,-0.4021816463088531,-1778.3804572759939,2154.677992623832,
0.0,0.51232165,0.109512255,-0.3685136,-0.43016797861700146,0.11491502145104267,-0.4021816463088531,NaN,NaN,
0.0,0.3015732,0.053923517,-0.18342145,-0.42627023591762914,0.1227081725621233,-0.4040252702089599,-8300.58181358929,8358.721255905008,
0.0,-0.056393854,0.15410542,-0.019709568,-0.43203798837298896,0.13462769573423944,-0.3939779038907387,-10781.609594692894,11179.528800826045,
0.0,-0.40092185,0.10706879,0.06642243,-0.43203798837298896,0.13462769573423944,-0.3939779038907387,-Infinity,Infinity,
0.0,-0.64526796,0.02154766,0.14155886,-0.4422887328022945,0.13061289449064498,-0.3838241488483316,-6554.136839659165,6895.601770734118,
0.0,-0.89877707,0.078968994,0.2832796,-0.4422887328022945,0.13061289449064498,-0.3838241488483316,-Infinity,Infinity,
0.0,-1.0160632,0.058199573,0.35291824,-0.46011390348837417,0.1243259213911989,-0.3644698748828915,-3888.8706262945057,3981.105896140727,
0.0,-1.0160632,-0.021212906,0.33886832,-0.4745314091177234,0.11083992511364435,-0.3500492556366597,309.5669835207069,-281.9483342459766,
0.0,-0.87922937,-0.13788816,0.29427516,-0.4745314091177234,0.11083992511364435,-0.3500492556366597,Infinity,-Infinity,
0.0,-0.6208334,-0.2954914,0.2692297,-0.4738883748665978,0.07942635991377248,-0.35933451007017514,5685.478985554849,-6241.572339397048,
0.0,-0.28119227,-0.2954914,0.2832796,-0.4738883748665978,0.07942635991377248,-0.35933451007017514,NaN,NaN,
0.0,-0.10037615,-0.46958798,0.33153796,-0.45851389257328634,0.040104575220247275,-0.3849112390849693,2437.2849467155693,-3134.9988306371793,
0.0,-0.10037615,-0.44148818,0.33642486,-0.4403857890537556,0.0052259916374779785,-0.4074715627146711,-111.55581081932681,93.62987359761485,
0.0,-0.25981197,-0.33764112,0.36085945,-0.4403857890537556,0.0052259916374779785,-0.4074715627146711,-Infinity,Infinity,
0.0,-0.38870457,-0.22707449,0.33337054,-0.43455776168083343,-0.016715457323882257,-0.4133765521405727,-1815.5129344286397,2439.15764982402,
0.0,-0.38870457,-0.19958556,0.31260115,-0.43455776168083343,-0.016715457323882257,-0.4133765521405727,NaN,NaN,
0.0,-0.44856933,-0.2215767,0.3168772,-0.4284359407115083,-0.03815925307893737,-0.41831393082388807,-1225.1033166671914,1464.1241624191196,
0.0,-0.3948132,-0.3413063,0.33031622,-0.4130086448513731,-0.0650119018088185,-0.43034560589305765,683.5525222834418,-1004.7235830234566,
0.0,-0.2946313,-0.3413063,0.33398142,-0.4130086448513731,-0.0650119018088185,-0.43034560589305765,NaN,NaN,
0.0,-0.2946313,-0.6510149,0.3516965,-0.3726343819862899,-0.10234066166991328,-0.4589880553357464,-420.32324319985736,319.46785275554333,
0.0,-0.48399955,-0.655291,0.39812225,-0.3726343819862899,-0.10234066166991328,-0.4589880553357464,-Infinity,Infinity,
0.0,-0.6776438,-0.655291,0.49402812,-0.3320709952162971,-0.13750183406315722,-0.4804395158347781,-5703.279769538728,6349.327946207628,
0.0,-0.58784664,-0.37551475,0.5416756,-0.3101767602864477,-0.1595118537586328,-0.4882073068880864,385.1607743027534,-1365.6803830981544,
0.0,-0.58784664,-0.6534584,0.5648885,-0.3101767602864477,-0.1595118537586328,-0.4882073068880864,NaN,NaN,
