Time,GyroX,GyroY,GyroZ,PosX,PosY,PosZ,TorPie,TorThe,
Started:
3.3554432E7,-0.13245514,0.018308243,5.522222E-4,-4.213097961502396E-8,9.479407018608367E-6,0.6000000237669738,0.0,0.0,
3.3554432E7,-0.13245514,-0.009180694,0.010326066,-1.9321815666779526E-6,2.17366825133684E-4,0.5999999844651333,0.08921123345619365,291.2832338607957,
3.3554432E7,-0.13245514,-0.011624155,0.014602123,-6.848634070007128E-6,5.13612911354321E-4,0.5999998039708876,-0.010675629000817505,127.43642207850145,
3.3554432E7,-0.13245514,-0.008569829,0.01765645,-6.848634070007128E-6,5.13612911354321E-4,0.5999998039708876,NaN,NaN,
3.3554432E7,-0.13245514,0.007312668,0.037815,-2.26220850966299E-5,0.0012723791820854972,0.5999986742899424,0.097084834994997,600.7716468018715,
3.3554432E7,-0.13245514,0.01097786,0.05858442,-5.436130261549343E-5,0.0024460878824353726,0.5999950352370844,0.32803053555399975,618.9767828386463,
3.3554432E7,-0.22225232,-0.018954538,0.07324518,-5.436130261549343E-5,0.0024460878824353726,0.5999950352370844,NaN,NaN,
3.3554432E7,-0.28150627,-0.034837034,0.04881058,-1.0920400551627333E-4,0.003446843914686912,0.599990113211662,-1765.439528461753,-727.0794102454826,
3.3554432E7,-0.37130344,-0.09836702,-0.02632585,-1.0920400551627333E-4,0.003446843914686912,0.599990113211662,NaN,NaN,
3.3554432E7,-0.50019604,-0.21382056,-0.107570924,-7.256878172017426E-5,0.001496111808324123,0.5999981541583765,-3822.262741373181,-2391.203822197729,
3.3554432E7,-0.5789976,-0.2339791,-0.25967637,2.2473338558290772E-4,-0.0033111309888362887,0.5999908453607523,-2277.1753054542046,-4495.753078880323,
3.3554432E7,-0.5789976,-0.26330063,-0.4649271,2.2473338558290772E-4,-0.0033111309888362887,0.5999908453607523,NaN,NaN,
3.3554432E7,-0.47148535,-0.39646927,-0.4649271,0.0019662931539784767,-0.020033987168475462,0.5996622396479505,1600.626485953307,-67.70080349072752,
3.3554432E7,-0.37130344,-0.39646927,-0.92613035,0.0019662931539784767,-0.020033987168475462,0.5996622396479505,Infinity,-Infinity,
3.3554432E7,-0.24302174,-0.9456371,-1.1668112,0.0019662931539784767,-0.020033987168475462,0.5996622396479505,Infinity,-Infinity,
3.3554432E7,-0.15994406,-0.96762824,-1.4649135,0.004630476700723235,-0.047049080705469405,0.5981345762456174,3132.373772135636,-9044.213647389372,
3.3554432E7,-0.33281893,-0.49665114,-1.743468,0.004630476700723235,-0.047049080705469405,0.5981345762456174,NaN,NaN,
3.3554432E7,-0.7928005,0.31579962,-1.9438319,0.010391856140941723,-0.08513330541109584,0.5938386634818897,-13297.572803180903,-5080.3265368722205,
3.3554432E7,-0.8935932,0.55709136,-2.033018,0.010391856140941723,-0.08513330541109584,0.5938386634818897,NaN,NaN,
3.3554432E7,-0.7103337,0.46118554,-2.116096,0.018435626544436146,-0.12688624325665024,0.5861399470743811,5575.542160678859,-2738.6820717685036,
3.3554432E7,-0.599767,0.55953485,-2.2437665,0.02872055576281911,-0.17095129818874308,0.574413450342598,3407.3949411439617,-3901.6663100370956,
3.3554432E7,-0.68101215,0.9333844,-2.3751028,0.02872055576281911,-0.17095129818874308,0.574413450342598,NaN,NaN,
3.3554432E7,-0.7420986,1.1783413,-2.4685652,0.045452901880381924,-0.21968880700022383,0.5564808086535428,-1847.2996908007674,-2802.8281521741587,
3.3554432E7,-0.7420986,1.2498126,-2.5198777,0.0678570450060926,-0.26689639068066984,0.533068257069301,-78.84581799567017,-1527.1961111889152,
3.3554432E7,-0.7420986,1.2424822,-2.577299,0.0678570450060926,-0.26689639068066984,0.533068257069301,NaN,NaN,
3.3554432E7,-0.7420986,1.139246,-2.6383858,0.09601257818711448,-0.31163554670280613,0.5036515655404403,-163.2793650444341,-1813.1872831628757,
3.3554432E7,-0.7420986,1.093431,-2.6890874,0.09601257818711448,-0.31163554670280613,0.5036515655404403,NaN,NaN,
3.3554432E7,-0.86427164,1.0494487,-2.732459,0.13135250629703682,-0.3515939966644059,0.46811132138548706,-3773.8011179134596,-1736.5146785686911,
3.3554432E7,-0.86427164,0.90100855,-2.809428,0.13135250629703682,-0.3515939966644059,0.46811132138548706,NaN,NaN,
3.3554432E7,-0.7598137,0.65482986,-2.8760123,0.16810854431420563,-0.38665484441994213,0.4268929341478717,2788.873280075815,-1507.0062752544884,
3.3554432E7,-0.7598137,0.50150263,-2.8741796,0.20663578047542258,-0.414401464797898,0.38154044190740716,8.907921699634093,53.88812469201137,
3.3554432E7,-0.7598137,0.57847166,-2.8888404,0.20663578047542258,-0.414401464797898,0.38154044190740716,NaN,NaN,
3.3554432E7,-0.66268617,0.6322278,-2.9487052,0.24824861723306663,-0.4346536809666763,0.3308305159356059,2516.969329816367,-1221.0926637011341,
3.3554432E7,-0.66268617,0.68109703,-2.9920766,0.24824861723306663,-0.4346536809666763,0.3308305159356059,NaN,NaN,
3.3554432E7,-0.6119844,0.708586,-2.9517596,0.29170749697142623,-0.4454539937642847,0.2765456639695224,1727.2862270438432,1488.676425482527,
3.3554432E7,-0.6119844,0.7452378,-2.8650167,0.3354672372448605,-0.44563491023842267,0.22106851454316923,598.9614742587706,2514.794207706481,
3.3554432E7,-0.5612825,0.80937874,-2.7245176,0.3354672372448605,-0.44563491023842267,0.22106851454316923,Infinity,Infinity,
3.3554432E7,-0.5038612,0.7647856,-2.6487703,0.3754583707499326,-0.4366788182355325,0.1683527550961226,2233.2127301860464,2620.9526224479273,
3.3554432E7,-0.5038612,0.67193407,-2.5522537,0.4115069768387077,-0.4207401958808514,0.11678922978357291,800.5168113779059,2762.7811513495994,
3.3554432E7,-0.4439964,0.5882456,-2.3867092,0.4115069768387077,-0.4207401958808514,0.11678922978357291,Infinity,Infinity,
3.3554432E7,-0.4439964,0.5686978,-2.2297168,0.44052119284912344,-0.40104073390709905,0.07146633478968151,1387.6201602062706,4468.233493013222,
3.3554432E7,-0.39329457,0.5686978,-2.0525658,0.44052119284912344,-0.40104073390709905,0.07146633478968151,Infinity,Infinity,
3.3554432E7,-0.2876149,0.5131091,-1.8619759,0.46220463187846983,-0.3810471591340175,0.034204815395102714,4768.98969781101,6380.383124487766,
3.3554432E7,-0.17277223,0.4007099,-1.6915445,0.46220463187846983,-0.3810471591340175,0.034204815395102714,Infinity,Infinity,
3.3554432E7,-0.10802052,0.29930624,-1.526,0.4750137368867407,-0.36652500161437745,0.004626183168111579,3417.7337852269084,5292.350197437429,
3.3554432E7,-0.10802052,0.18446359,-1.2847083,0.48391237416692195,-0.35414195573077256,-0.020305613252164283,2361.2031127704427,6792.347892917735,
3.3554432E7,-0.043268807,0.106883705,-1.0757923,0.48391237416692195,-0.35414195573077256,-0.020305613252164283,Infinity,Infinity,
3.3554432E7,0.017206851,0.03357987,-0.86931986,0.486983653861545,-0.3485740303791651,-0.036648258172985226,3728.738438753143,6403.619406143669,
3.3554432E7,0.08379116,0.010366994,-0.6494084,0.486983653861545,-0.3485740303791651,-0.036648258172985226,Infinity,Infinity,
3.3554432E7,0.16259277,0.007312668,-0.40384057,0.4865027315958744,-0.3484929206930352,-0.043218109477630905,4629.730371422055,7683.585182427656,
3.3554432E7,0.25300083,-0.0354479,-0.14300111,0.48361913165331133,-0.3523459438821509,-0.04432719186823506,5098.651400820701,8227.316929090615,
3.3554432E7,0.25300083,-0.09714529,0.12516873,0.48361913165331133,-0.3523459438821509,-0.04432719186823506,NaN,NaN,
3.3554432E7,0.25300083,-0.19671632,0.3841756,0.4765188867386217,-0.36283711200594576,-0.03576324010488234,2487.711484486758,7307.143308355232,
3.3554432E7,0.108836636,-0.3213328,0.6486802,0.4678319002555518,-0.37495755885228216,-0.023241574237707147,-1621.9652571709798,6148.46784268845,
3.3554432E7,0.108836636,-0.43128857,0.9913757,0.4678319002555518,-0.37495755885228216,-0.023241574237707147,NaN,NaN,
3.3554432E7,0.108836636,-0.5003163,1.2723737,0.4678319002555518,-0.37495755885228216,-0.023241574237707147,NaN,NaN,
3.3554432E7,0.23039882,-0.5803397,1.5521499,0.44923572405959383,-0.3976604735565866,0.007310308449979889,5910.479814302386,9034.070752775051,
3.3554432E7,0.28965273,-0.7574906,1.8368131,0.42367103696528047,-0.42254727406614895,0.04423440093706305,3983.7876387747847,8645.881360073618,
3.3554432E7,0.28965273,-0.9847325,2.12392,0.42367103696528047,-0.42254727406614895,0.04423440093706305,NaN,NaN,
3.3554432E7,0.34890667,-1.2174722,2.4281306,0.3835336204300844,-0.4517089960614019,0.09413274396947346,3799.90866955085,9229.45147908327,
3.3554432E7,0.34890667,-1.453877,2.7604413,0.33480118590425323,-0.47408780550296536,0.15214778079458854,1800.6416504013555,9738.561247070944,
3.3554432E7,0.43564954,-1.7196034,3.043272,0.33480118590425323,-0.47408780550296536,0.15214778079458854,Infinity,Infinity,
3.3554432E7,0.52178156,-2.011597,3.2790658,0.2691467088774985,-0.487591928130106,0.22319092574073587,3358.5688830992312,7275.91887933426,
3.3554432E7,0.6671675,-2.3616228,3.5509012,0.19694875941058057,-0.48082632991715374,0.3000287573471312,4622.348654475979,8252.396370076785,
3.3554432E7,0.83393365,-2.6084123,3.7555408,0.19694875941058057,-0.48082632991715374,0.3000287573471312,Infinity,Infinity,
3.3554432E7,1.0575104,-2.8839126,3.9559047,0.19694875941058057,-0.48082632991715374,0.3000287573471312,Infinity,Infinity,
3.3554432E7,1.3226259,-3.3640528,4.118395,0.1079819929979029,-0.44599160048920616,0.3865635912647585,7506.296199610487,4222.215148433978,
3.3554432E7,1.4820617,-3.8906183,4.258894,0.036679403060125536,-0.37776756802631617,0.4647002416062052,3787.8535040024312,3119.406721795471,
3.3554432E7,1.6005696,-4.3341064,4.4219947,0.036679403060125536,-0.37776756802631617,0.4647002416062052,NaN,NaN,
3.3554432E7,1.8528569,-4.861894,4.5606613,-0.010011459798794543,-0.28193255647553667,0.5295411531525152,5512.422335415079,1130.0146101838554,
3.3554432E7,2.3427708,-5.3872385,4.4965205,-0.010011459798794543,-0.28193255647553667,0.5295411531525152,Infinity,-Infinity,
3.3554432E7,2.835128,-5.6486883,4.3725147,-0.030430580186451457,-0.19298017231095996,0.5673029715192563,14395.138798886883,-10925.580524829766,
3.3554432E7,3.7172174,-6.06591,4.3065414,-0.03287755425496096,-0.1392159195727309,0.5826989126246599,20349.901371218308,-19598.414406044772,
3.3554432E7,4.5693746,-6.259554,4.1330557,-0.03287755425496096,-0.1392159195727309,0.5826989126246599,Infinity,-Infinity,
3.3554432E7,5.080669,-6.2002997,3.7671473,-0.04052711663299045,-0.1514923760643402,0.5791438866309706,17598.964191823565,-18733.32335011098,
3.3554432E7,5.2688155,-5.9785557,3.311442,-0.04052711663299045,-0.1514923760643402,0.5791438866309706,Infinity,-Infinity,
3.3554432E7,5.391599,-5.703056,2.8404648,-0.050721945726483884,-0.21669258665638763,0.5571998166906676,14336.316270325076,-8926.220560706093,
3.3554432E7,5.6060133,-5.554615,2.3847592,-0.04132816233620404,-0.31190729199213363,0.5108873190932384,14652.989926462546,-9217.066796583937,
3.3554432E7,5.96398,-5.4043427,2.009077,-0.04132816233620404,-0.31190729199213363,0.5108873190932384,Infinity,-Infinity,
3.3554432E7,6.4111333,-5.0689774,1.7213596,0.004049831182750988,-0.42004371001045115,0.4284237495264206,9247.586076930238,-13748.896863314272,
3.3554432E7,6.81125,-4.2772965,1.6621057,0.004049831182750988,-0.42004371001045115,0.4284237495264206,Infinity,-Infinity,
3.3554432E7,7.420283,-3.860686,1.8417001,0.09809719023476177,-0.5060921561191347,0.3069978817401848,-6753.4522843743935,-18513.143390675817,
3.3554432E7,7.791689,-3.6725395,1.9669275,0.2419327541546187,-0.5249021050044248,0.16107871131628357,-5870.888853065646,-11591.610209796834,
3.3554432E7,7.863771,-3.4068131,2.08177,0.2419327541546187,-0.5249021050044248,0.16107871131628357,-Infinity,-Infinity,
3.3554432E7,7.863771,-2.6774402,2.3963656,0.3833453471521966,-0.46153969876439516,0.005242126616484446,-8980.847016337631,-2692.1753883537936,
3.3554432E7,8.339025,-2.795948,2.4153025,0.3833453471521966,-0.46153969876439516,0.005242126616484446,-Infinity,-Infinity,
3.3554432E7,8.853983,-2.914456,1.7445725,0.48605697606915504,-0.31574301716474684,-0.15509671736191352,12674.536131965393,-6618.246538969623,
3.3554432E7,9.238828,-2.8875775,0.8722569,0.5090787370257038,-0.13328630402867625,-0.2882249629662907,17631.17837557317,1999.769921311632,
3.3554432E7,9.443469,-2.7623503,0.04086933,0.5090787370257038,-0.13328630402867625,-0.2882249629662907,NaN,NaN,
3.3554432E7,9.443469,-2.6059687,-0.8045682,0.4649093836224769,0.01900429837396259,-0.37881147062003295,21166.598924910013,13667.976920623569,
3.3554432E7,9.651163,-2.5222802,-1.7446898,0.4649093836224769,0.01900429837396259,-0.37881147062003295,NaN,NaN,
3.3554432E7,9.425142,-2.1594262,-2.351279,0.3972172515154195,0.1237933829508513,-0.43231201931747154,18491.029577450667,16259.621728727858,
3.3554432E7,9.095885,-1.6640147,-2.831419,0.324098543050795,0.19431209926965912,-0.4660503954295074,17262.93822191303,16731.069310374507,
3.3554432E7,8.792896,-0.891881,-3.14968,0.324098543050795,0.19431209926965912,-0.4660503954295074,Infinity,Infinity,
3.3554432E7,8.348798,-0.037280496,-3.607218,0.2523463153630217,0.18463755005201044,-0.5120843102885771,18959.305606179514,18912.63640348462,
3.3554432E7,7.809404,0.6383365,-3.5937788,0.2523463153630217,0.18463755005201044,-0.5120843102885771,NaN,NaN,
3.3554432E7,7.5192432,1.2247671,-3.5950007,0.16521656157593093,0.10929184482114873,-0.5663557265949084,5343.040316724453,6844.15781310846,
3.3554432E7,7.4532695,1.5216476,-3.6285982,0.046487271176857796,0.023969267106925037,-0.5977160165690026,1947.8427638602016,2184.9377498282233,
3.3554432E7,7.267566,1.4947696,-3.697015,0.046487271176857796,0.023969267106925037,-0.5977160165690026,Infinity,Infinity,
3.3554432E7,6.8252997,1.1484089,-3.942583,-0.06945339732134137,-0.026143253093690987,-0.5953929664754474,13289.98091961929,15043.874642634648,
3.3554432E7,6.6689186,0.98958397,-3.8821073,-0.06945339732134137,-0.026143253093690987,-0.5953929664754474,NaN,NaN,
3.3554432E7,6.5290303,1.4434569,-3.7019022,-0.21322361701521542,-0.039517939405754425,-0.5594408371063931,-2565.306363807551,923.8945927353734,
3.3554432E7,5.852192,1.8331889,-3.7275584,-0.3576182036029052,0.03209317162832692,-0.4807070598575559,9680.576686011396,18395.142547612493,
3.3554432E7,4.87664,1.9840727,-3.8533967,-0.3576182036029052,0.03209317162832692,-0.4807070598575559,Infinity,Infinity,
3.3554432E7,4.3793955,2.3628092,-3.6041636,-0.42142854314632816,0.22664827927295994,-0.36197868602225725,-1351.6720709833266,10969.625647692332,
3.3554432E7,4.2975397,2.3059986,-3.122191,-0.42142854314632816,0.22664827927295994,-0.36197868602225725,NaN,NaN,
3.3554432E7,4.541886,1.8814473,-2.7428434,-0.37673543266381393,0.40820767710742434,-0.22679712241648858,-13021.77267345558,-10467.593203053231,
3.3554432E7,4.397111,1.1905586,-2.4899454,-0.37673543266381393,0.40820767710742434,-0.22679712241648858,NaN,NaN,
3.3554432E7,3.5058582,0.712862,-2.1026568,-0.3271021122461007,0.48197616877794175,-0.14388609906626293,-3293.8175876417126,22040.48817425598,
3.3554432E7,1.852246,0.86741096,-1.5498238,-0.24100163253227033,0.5438289205082891,-0.07853882444880088,-2897.7987540345216,43192.93974460756,
3.3554432E7,1.022691,1.0677748,-1.1771959,-0.24100163253227033,0.5438289205082891,-0.07853882444880088,NaN,NaN,
3.3554432E7,0.7478017,0.55709136,-0.87909377,-0.17671504006289493,0.5716929008623313,-0.04403464919142913,-6599.891250218169,5759.373199906504,
3.3554432E7,0.5382749,0.55709136,-0.6170325,-0.17671504006289493,0.5716929008623313,-0.04403464919142913,NaN,NaN,
3.3554432E7,0.24811392,0.27853683,-0.3629126,-0.14369565056941297,0.5818223429965086,-0.02888511394674506,-5312.985387431833,6610.678359151528,
3.3554432E7,0.060578287,0.41292718,-0.25967637,-0.09737159284776573,0.5919376781508154,-0.011339607662551559,-1752.5167234417995,4761.9223430990305,
3.3554432E7,-0.1471159,0.50700045,-0.15705101,-0.09737159284776573,0.5919376781508154,-0.011339607662551559,NaN,NaN,
3.3554432E7,-0.38901854,0.3933795,0.039036732,-0.056198593742512244,0.5973568343631761,-0.0025610761798609705,-4198.192782370121,5820.048564574185,
3.3554432E7,-0.57166725,0.19912437,0.27421984,-0.056198593742512244,0.5973568343631761,-0.0025610761798609705,NaN,NaN,
3.3554432E7,-0.704225,0.08855775,0.42204925,-0.05244711367732208,0.597600646090204,-0.011081365877852424,-3491.198636252661,2951.619187149976,
3.3554432E7,-0.7671441,0.03907766,0.50085086,-0.055082959791833766,0.59704042778192,-0.022552688194166257,-1911.8725365584824,1351.1892069982664,
3.3554432E7,-0.7671441,0.015864782,0.5662134,-0.055082959791833766,0.59704042778192,-0.022552688194166257,NaN,NaN,
3.3554432E7,-0.67368174,0.0012040153,0.59248066,-0.06373675771571817,0.5956745389903905,-0.03330912674784023,-1339.6673778550723,-2886.903807427951,
3.3554432E7,-0.60343224,0.015864782,0.5656026,-0.06373675771571817,0.5956745389903905,-0.03330912674784023,NaN,NaN,
3.3554432E7,-0.5142459,0.003036611,0.48496836,-0.07073722726092552,0.5943827298833364,-0.04129701812599678,1804.5132895665295,-2106.389806276268,
3.3554432E7,-0.43177912,0.045186315,0.39028424,-0.07202601547194853,0.5938474724685289,-0.0464484784272275,2260.0115057088283,-1829.184184937704,
3.3554432E7,-0.3633622,0.10444024,0.2681112,-0.07202601547194853,0.5938474724685289,-0.0464484784272275,NaN,NaN,
3.3554432E7,-0.27845195,0.007312668,0.16609672,-0.07335908248716191,0.5933140011284141,-0.05096047185676438,2459.7418156612034,-1856.680446781586,
3.3554432E7,-0.13489859,-0.15212315,0.15754458,-0.07335908248716191,0.5933140011284141,-0.05096047185676438,NaN,NaN,
3.3554432E7,-0.009060353,-0.36287168,0.16670756,-0.11220243462660144,0.5858961607953821,-0.06431431442008187,-1076.7632814827962,-3720.714177650291,
3.3554432E7,-0.36641654,-0.36287168,0.16548584,-0.14842920242779872,0.5751169155239043,-0.08490779678656074,2462.5110197069266,10378.101293016525,
3.3554432E7,-0.59060407,0.038466796,0.24306571,-0.14842920242779872,0.5751169155239043,-0.08490779678656074,NaN,NaN,
3.3554432E7,-0.59060407,0.07145352,0.34996712,-0.14531742796523991,0.5748236481284168,-0.09198177695682659,-3103.809340910828,-718.6037799200595,
