Time,GyroX,GyroY,GyroZ,PosX,PosY,PosZ,TorPie,TorThe,
Started:
3.3554432E7,-0.27845195,0.43797266,-0.6335259,1.2391187177274434E-4,-0.012833989138052768,0.5998627359478854,0.0,0.0,
3.3554432E7,-0.3896294,0.34512115,-0.9285738,7.557884960790043E-4,-0.031767883888460316,0.5991579582607817,-3543.225852301637,-8877.128973410625,
3.3554432E7,-0.55639565,0.3090801,-1.153983,0.00246192204125191,-0.05541449921796584,0.5974304987414979,-5212.815630180735,-6895.304405237984,
3.3554432E7,-0.70972276,0.42758796,-1.3005908,0.005907935128302176,-0.08227221210897417,0.5943032963289416,-4786.276081704304,-4596.491528315556,
3.3554432E7,-0.70972276,0.6432234,-1.4710221,0.005907935128302176,-0.08227221210897417,0.5943032963289416,NaN,NaN,
3.3554432E7,-0.55089784,0.82892644,-1.6518383,0.019240099717798963,-0.1501641128872516,0.5805864159398358,2066.4976739571134,-2427.2056457460317,
3.3554432E7,-0.4391095,0.8044918,-1.7837851,0.019240099717798963,-0.1501641128872516,0.5805864159398358,NaN,NaN,
3.3554432E7,-0.36763823,0.7818898,-1.9138994,0.019240099717798963,-0.1501641128872516,0.5805864159398358,NaN,NaN,
3.3554432E7,-0.36763823,0.7690616,-2.0379052,0.029631895275554685,-0.19005177640318346,0.5683329144776,-487.9814957964538,-3663.302037887925,
3.3554432E7,-0.31693643,0.75256824,-2.1368651,0.029631895275554685,-0.19005177640318346,0.5683329144776,NaN,NaN,
3.3554432E7,-0.31693643,0.66582537,-2.2620926,0.04307764096482098,-0.2321719882980098,0.551580015327681,-575.3085751985925,-3687.45957804463,
3.3554432E7,-0.31693643,0.63161695,-2.4129763,0.06016545688928149,-0.27444082227779243,0.5301531679383075,-787.1749106057036,-4427.247664582489,
3.3554432E7,-0.31693643,0.6743775,-2.5259864,0.06016545688928149,-0.27444082227779243,0.5301531679383075,NaN,NaN,
3.3554432E7,-0.31693643,0.68598396,-2.6493812,0.08228458980366367,-0.31711495079132557,0.5026603056495391,-726.9242325967921,-3604.8877460973717,
3.3554432E7,-0.20759155,0.6792645,-2.7935455,0.10780086550063535,-0.35723538284260964,0.4698530443158139,2233.8779701687704,-3474.416293801766,
3.3554432E7,-0.14161812,0.6792645,-2.8980033,0.10780086550063535,-0.35723538284260964,0.4698530443158139,NaN,NaN,
3.3554432E7,-0.14161812,0.73851836,-2.990855,0.13807039331717588,-0.39401505567690875,0.43091615309639175,-675.3718392020337,-2683.512275606438,
3.3554432E7,-0.14161812,0.75806606,-3.049498,0.13807039331717588,-0.39401505567690875,0.43091615309639175,NaN,NaN,
3.3554432E7,-0.07625553,0.7189707,-3.0800412,0.17154102448533867,-0.4248441171311318,0.387403125526653,1633.642007050026,-356.25668158684454,
3.3554432E7,-0.07625553,0.7189707,-3.1185257,0.17154102448533867,-0.4248441171311318,0.387403125526653,NaN,NaN,
3.3554432E7,-0.07625553,0.7653964,-3.1423495,0.2092100805248929,-0.44789559151745667,0.34003045439522844,-207.35062636341965,-679.050502402453,
3.3554432E7,-0.07625553,0.7146946,-3.1362407,0.24866592098960985,-0.46245652843080914,0.29034332721855927,57.32766854015631,172.7936805115844,
3.3554432E7,-0.07625553,0.57480645,-3.103865,0.24866592098960985,-0.46245652843080914,0.29034332721855927,NaN,NaN,
3.3554432E7,-0.07625553,0.38910344,-3.036059,0.2836260543426462,-0.4714232744209421,0.23940840888007553,661.3119241708465,1909.5035845740958,
3.3554432E7,0.0251481,0.30846924,-2.9432073,0.2836260543426462,-0.4714232744209421,0.23940840888007553,Infinity,Infinity,
3.3554432E7,0.17908613,0.35794932,-2.8570755,0.31207378280289355,-0.4752844695934246,0.1916106877515438,5185.862127730159,3968.6332498474917,
3.3554432E7,0.3305807,0.35794932,-2.717798,0.3362091626509982,-0.47482662535430875,0.1466393651595082,5681.750694724576,5468.045270530729,
3.3554432E7,0.3855586,0.35794932,-2.5815752,0.3362091626509982,-0.47482662535430875,0.1466393651595082,Infinity,Infinity,
3.3554432E7,0.29087448,0.04579718,-2.4398544,0.3517624550111646,-0.4748155283488984,0.10398758528547991,-1158.2114682916203,2963.1169717354787,
3.3554432E7,0.08501289,0.04579718,-2.3341749,0.3517624550111646,-0.4748155283488984,0.10398758528547991,NaN,NaN,
3.3554432E7,-0.010282083,0.14292476,-2.246821,0.3709781069366901,-0.46732156574194744,0.06313340618400469,-1727.954859009837,1422.5786696192854,
3.3554432E7,-0.010282083,0.036023334,-2.133811,0.38554935197089374,-0.45913739275107696,0.023336246116228577,1202.0687805991988,3146.136382743909,
3.3554432E7,-0.010282083,-0.08676058,-2.0049183,0.38554935197089374,-0.45913739275107696,0.023336246116228577,NaN,NaN,
3.3554432E7,-0.010282083,-0.12280163,-1.8357087,0.3931364563709417,-0.4530901713030407,-0.01237141668969286,1780.42997510028,4718.08166939839,
3.3554432E7,-0.010282083,-0.048886936,-1.6481731,0.3931364563709417,-0.4530901713030407,-0.01237141668969286,NaN,NaN,
3.3554432E7,-0.010282083,0.02502776,-1.3934423,0.4005421760765839,-0.4450719115998239,-0.03843159245911562,2686.2514625278695,7100.421729810393,
3.3554432E7,0.04713925,0.02502776,-1.1704764,0.4005421760765839,-0.4450719115998239,-0.03843159245911562,Infinity,Infinity,
3.3554432E7,0.04713925,-0.07271068,-0.92796296,0.40213494512238757,-0.4417327932412312,-0.056210798757392585,2540.913957805754,6766.092254767418,
3.3554432E7,0.10333885,0.02747122,-0.6316933,0.40387326951898617,-0.43862234098674446,-0.06705857712166631,4679.175356241778,8853.288799068729,
3.3554432E7,0.10333885,-0.05194126,-0.30976734,0.40387326951898617,-0.43862234098674446,-0.06705857712166631,NaN,NaN,
3.3554432E7,0.038587134,-0.09225837,-0.04159748,0.40128648531323136,-0.44077448547919695,-0.06846194757478778,985.4204540070734,6813.49026125564,
3.3554432E7,-0.02860804,-0.15273403,-0.04159748,0.40128648531323136,-0.44077448547919695,-0.06846194757478778,NaN,NaN,
3.3554432E7,-0.02860804,-0.3286632,0.46603152,0.391897919007582,-0.4499411407199026,-0.06300015536036034,5131.203421149645,14231.758236803265,
3.3554432E7,-0.0909163,-0.45327973,0.758636,0.37903836559340903,-0.4620530548723745,-0.05326274966253269,1076.3550424913162,7644.238021408195,
3.3554432E7,-0.0909163,-0.5571268,1.1471462,0.37903836559340903,-0.4620530548723745,-0.05326274966253269,NaN,NaN,
3.3554432E7,0.004989547,-0.75321454,1.4580767,0.35410725478270044,-0.4833466883528357,-0.03136972392030987,5513.386675449796,9697.046029960691,
3.3554432E7,0.15037547,-1.036656,1.7714505,0.3174975830118336,-0.5091019773233972,-0.0032388388785168087,6672.987674471253,10157.91428513373,
3.3554432E7,0.25483343,-1.3023825,2.1055937,0.3174975830118336,-0.5091019773233972,-0.0032388388785168087,Infinity,Infinity,
3.3554432E7,0.30614612,-1.5106875,2.4556196,0.2618909672007795,-0.538452349654571,0.038499572209856954,3769.656391709311,10513.818044007008,
3.3554432E7,0.30614612,-1.6664581,2.7964823,0.2008654851212718,-0.5583067410625563,0.0891440877531087,1660.178691752361,10021.92403566362,
3.3554432E7,0.30614612,-1.8008485,3.0628195,0.2008654851212718,-0.5583067410625563,0.0891440877531087,NaN,NaN,
3.3554432E7,0.37211958,-2.0390859,3.346872,0.2008654851212718,-0.5583067410625563,0.0891440877531087,Infinity,Infinity,
3.3554432E7,0.596918,-2.2987037,3.6217616,0.11903203173270306,-0.5663741862653701,0.1582772414595817,7386.255583156485,8743.674918963517,
3.3554432E7,1.072782,-2.5534344,3.9632351,0.0331181711916554,-0.5509034851664747,0.23539024061881175,14195.611549164894,10195.886573081874,
3.3554432E7,1.4454098,-2.6725533,4.1880336,0.0331181711916554,-0.5509034851664747,0.23539024061881175,Infinity,Infinity,
3.3554432E7,1.7178557,-2.71959,4.3621297,-0.046306278684245784,-0.508216008645702,0.3155507022981864,7620.9101338291875,4438.5439438771855,
3.3554432E7,1.9377673,-2.7122595,4.4690313,-0.046306278684245784,-0.508216008645702,0.3155507022981864,NaN,NaN,
3.3554432E7,2.237091,-2.7318072,4.497742,-0.10457020541613486,-0.4462702237070894,0.3871795296524364,8619.40629579061,-769.1929879196252,
3.3554432E7,2.781983,-3.0549548,4.4287143,-0.14366394594497978,-0.3780755002004626,0.44319252632904127,16164.777030194344,-6526.017741818737,
3.3554432E7,3.5168538,-3.4233067,4.249731,-0.14366394594497978,-0.3780755002004626,0.44319252632904127,Infinity,-Infinity,
3.3554432E7,4.2547793,-3.6645985,4.249731,-0.17969599943198283,-0.3180717963425848,0.4759618774332375,20195.117097874685,-8706.358039928597,
3.3554432E7,4.7642407,-3.7708888,3.932081,-0.17969599943198283,-0.3180717963425848,0.4759618774332375,Infinity,-Infinity,
3.3554432E7,5.250489,-3.720187,3.710337,-0.216381162760232,-0.2847164455489261,0.48178394187306145,15840.980530671453,-13044.767527494034,
3.3554432E7,5.5088854,-3.4147544,3.4452214,-0.2528423536318369,-0.27685172524518137,0.4684270434645184,10906.237410536154,-10945.46233401683,
3.3554432E7,5.8863997,-3.234549,3.2595184,-0.2528423536318369,-0.27685172524518137,0.4684270434645184,Infinity,-Infinity,
3.3554432E7,6.5931716,-3.1966755,3.247301,-0.3046811895547001,-0.29105555587769516,0.42714876183185746,15607.719710679321,-14680.191179495016,
3.3554432E7,7.287725,-3.0775568,3.2894506,-0.3046811895547001,-0.29105555587769516,0.42714876183185746,NaN,NaN,
3.3554432E7,7.7183847,-2.8839126,3.311442,-0.3647497850948765,-0.3210767647728289,0.35194791376918966,7973.484335634503,-9214.14587533946,
3.3554432E7,8.012822,-2.7208116,3.2387488,-0.41011291578439896,-0.3646491108738558,0.24256638443105608,6914.556796333322,-8370.041327160689,
3.3554432E7,8.153933,-2.337799,3.0683174,-0.41011291578439896,-0.3646491108738558,0.24256638443105608,Infinity,-Infinity,
3.3554432E7,8.153933,-1.6768428,2.8294692,-0.4411968703221765,-0.3900017954953399,0.11508236067511667,5982.222222214639,-3857.749947968002,
3.3554432E7,8.421492,-0.9334198,2.4941041,-0.4411968703221765,-0.3900017954953399,0.11508236067511667,Infinity,-Infinity,
3.3554432E7,8.832603,-0.40685397,2.245482,-0.47715944322756965,-0.36326062009450105,-0.01898989830263475,12780.137953817039,-14316.677310080217,
3.3554432E7,9.133148,0.09894245,2.0329008,-0.4988220002976078,-0.2984012049119314,-0.14877285214860586,10135.733252258357,-10955.537801612667,
3.3554432E7,9.322517,0.44713566,1.8203198,-0.4988220002976078,-0.2984012049119314,-0.14877285214860586,Infinity,-Infinity,
3.3554432E7,9.527157,0.6957578,1.5442088,-0.5049280718391941,-0.18869073365517716,-0.2635213044739546,10228.538127022768,-9631.19498925756,
3.3554432E7,9.67071,1.103205,1.2125089,-0.5049280718391941,-0.18869073365517716,-0.2635213044739546,Infinity,-Infinity,
3.3554432E7,9.86863,1.7470568,0.69754946,-0.49357016925598346,-0.0210844535678387,-0.3405054514227276,15812.669359715628,-13934.80004122329,
3.3554432E7,10.131303,2.0518787,0.25161785,-0.42779150015870665,0.15344323507304983,-0.3917264793354032,15172.266780839727,-14615.452810979727,
3.3554432E7,10.191778,2.0164485,-0.040986612,-0.42779150015870665,0.15344323507304983,-0.3917264793354032,Infinity,-Infinity,
3.3554432E7,10.191778,2.340207,-0.49241602,-0.2989646996910612,0.31060588290826985,-0.41730579010078184,9452.362811165109,-9573.578713530644,
3.3554432E7,10.035397,2.249799,-0.82045066,-0.2989646996910612,0.31060588290826985,-0.41730579010078184,NaN,NaN,
3.3554432E7,9.554035,2.1147978,-0.8485505,-0.12991962780497926,0.3993457821300322,-0.4285368889794653,-10352.640765118838,8693.81214723052,
3.3554432E7,9.488673,1.9290947,-1.1564265,0.05660461817740101,0.41100194715893384,-0.433443589458635,3945.5024094244977,-6172.73539184549,
3.3554432E7,9.180185,1.8716733,-1.376338,0.05660461817740101,0.41100194715893384,-0.433443589458635,NaN,NaN,
3.3554432E7,8.515565,1.9724662,-1.7068162,0.23647048370546922,0.35951160455340153,-0.41813053600253847,-11224.850406528356,2553.9257274459023,
3.3554432E7,7.7354894,2.240025,-2.1057112,0.23647048370546922,0.35951160455340153,-0.41813053600253847,NaN,NaN,
3.3554432E7,7.164941,2.3640308,-2.4520717,0.4120115787052021,0.24804421524047887,-0.3587764692797063,-10010.688358146837,-949.8747551365163,
3.3554432E7,6.6921315,2.281564,-2.7465088,0.526304357663684,0.06905392295144458,-0.27970575153089544,-9270.607305004603,-2245.6889838849665,
3.3554432E7,5.564474,2.114187,-2.9334335,0.526304357663684,0.06905392295144458,-0.27970575153089544,NaN,NaN,
3.3554432E7,4.713539,1.6487076,-2.8931165,0.5511369841165552,-0.08796109135299625,-0.22025190068902462,-24110.574068328267,10196.655810840348,
3.3554432E7,3.9670615,1.1215309,-2.858908,0.5511369841165552,-0.08796109135299625,-0.22025190068902462,-Infinity,Infinity,
3.3554432E7,3.425835,0.7708942,-2.8790667,0.5246844863424545,-0.18720455510487996,-0.22284674767599522,-15005.608880152577,4813.9755441954485,
3.3554432E7,2.972573,0.8203743,-2.9181619,0.5246844863424545,-0.18720455510487996,-0.22284674767599522,NaN,NaN,
3.3554432E7,2.5211434,1.034788,-2.8790667,0.4976611535589454,-0.2746082507396813,-0.19215544091776868,-13181.544424537959,5155.900964105753,
3.3554432E7,2.016569,1.2937949,-2.7397892,0.46822861805367544,-0.3533434937689713,-0.12613629635006887,-15599.424173417363,7903.354441909118,
3.3554432E7,1.5834653,1.3670988,-2.5113256,0.46822861805367544,-0.3533434937689713,-0.12613629635006887,-Infinity,Infinity,
3.3554432E7,1.3464496,1.3670988,-2.2523189,0.43882339260800673,-0.40776378020091875,-0.03409924143563838,-8554.308974881835,9053.93860188471,
3.3554432E7,1.0923297,1.1722326,-1.7905047,0.43882339260800673,-0.40776378020091875,-0.03409924143563838,-Infinity,Infinity,
3.3554432E7,0.8956311,1.0659422,-1.4136008,0.4126765206764861,-0.43287369554897825,0.048150613644587885,-7781.430974610682,12101.780458097632,
3.3554432E7,0.66105884,0.86008054,-1.1032813,0.3890912557927547,-0.44167941415773654,0.11630700058520056,-8306.073035654792,10197.094331986182,
3.3554432E7,0.40449542,0.57969344,-0.81128764,0.3890912557927547,-0.44167941415773654,0.11630700058520056,-Infinity,Infinity,
3.3554432E7,0.211462,0.34573203,-0.52906793,0.379794245622307,-0.44220751663676616,0.14215791160662478,-6869.091440545973,9130.598201578152,
3.3554432E7,0.12960607,0.18446359,-0.27372628,0.37449554084040837,-0.4420497002311192,0.156029423592019,-3431.8313500695804,7866.993410420181,
3.3554432E7,0.12960607,0.040910255,-0.08680151,0.37449554084040837,-0.4420497002311192,0.156029423592019,NaN,NaN,
3.3554432E7,0.12960607,-0.06415857,0.06102788,0.3738896618368864,-0.44461240737966173,0.1500878295725223,-596.504761089163,4365.090244527723,
3.3554432E7,0.12960607,-0.09653442,0.14960335,0.3738896618368864,-0.44461240737966173,0.1500878295725223,NaN,NaN,
3.3554432E7,0.033700213,-0.08248452,0.18869871,0.37486624669585167,-0.4455077481665522,0.14490746020120174,-2991.7636454638077,1548.7876031446165,
3.3554432E7,-0.12268129,-0.08248452,0.21313334,0.37486624669585167,-0.4455077481665522,0.14490746020120174,-Infinity,Infinity,
3.3554432E7,-0.24118915,-0.11180605,0.24673091,0.3803226563106787,-0.44291727085979404,0.13848825539059706,-3638.1295515457264,1492.1531172142577,
3.3554432E7,-0.24118915,-0.161897,0.27788505,0.3867253953140712,-0.440701736846545,0.12737926193004898,-136.695047597559,918.3480334406445,
3.3554432E7,-0.24118915,-0.21748576,0.3047631,0.3867253953140712,-0.440701736846545,0.12737926193004898,NaN,NaN,
3.3554432E7,-0.613206,-0.17716864,0.3298086,0.3985759319158075,-0.43300593885044014,0.11680373293659996,-11070.531199013787,2435.0743698463366,
3.3554432E7,-1.0096576,0.08611428,0.34385848,0.3985759319158075,-0.43300593885044014,0.11680373293659996,-Infinity,Infinity,
3.3554432E7,-0.92108214,-0.033615302,0.3646279,0.4116468874135658,-0.41878548819431716,0.12314862390948847,2512.7171616064566,204.47222131658376,
3.3554432E7,-0.62114733,-0.41113004,0.40616676,0.42751850508758416,-0.41131914279246484,0.08969124366614185,8604.189546822408,-279.8306054575872,
