Time,GyroX,GyroY,GyroZ,PosX,PosY,PosZ,TorPie,TorThe,
Started:
0.0,0.073109575,1.0349731,-0.9891527,0.0,0.0,0.6000000238418579,0.0,0.0,
0.0,-0.17795604,0.9292934,-0.9463922,0.0,0.0,0.6000000238418579,NaN,NaN,
0.0,-0.17795604,0.49741167,-0.6611181,0.0,0.0,0.6000000238418579,NaN,NaN,
0.0,0.20200214,0.21274848,-0.8315495,-1.0992741579335071E-4,-0.01670932396796868,0.5997673007248118,11287.089001923569,-4998.288312969496,
0.0,0.5013261,-0.14582942,-1.5273249,-0.001110312441841574,-0.04739602750217847,0.598124077757721,8873.965659291665,-20715.63973762609,
0.0,0.4029768,-0.4873031,-2.2951827,-0.001110312441841574,-0.04739602750217847,0.598124077757721,-Infinity,-Infinity,
0.0,0.047453236,-0.38040167,-2.973854,-0.0028948284509809252,-0.10690141600648399,0.5903928656702061,-10382.094641368158,-20113.415334754787,
0.0,-0.25370333,-0.048090976,-3.235915,-0.0028948284509809252,-0.10690141600648399,0.5903928656702061,NaN,NaN,
0.0,-0.33372667,0.16998792,-3.3525903,-0.0026548230767994754,-0.17241022804203765,0.5746892149598368,-2368.1117489442436,-3465.6740097619304,
0.0,-0.060669914,0.075914666,-3.8913736,-0.003174052429862788,-0.2457473166881907,0.5473556525166765,8174.115196531362,-16075.405839598698,
0.0,0.38953778,-0.39078638,-4.9414506,-0.003174052429862788,-0.2457473166881907,0.5473556525166765,Infinity,-Infinity,
0.0,0.38953778,-0.35413447,-5.8504186,-0.01174959349041915,-0.34774036972400574,0.48881347253042423,383.3121784136899,-27086.6444819866,
0.0,-0.21827315,0.06919515,-6.368432,-0.01174959349041915,-0.34774036972400574,0.48881347253042423,NaN,NaN,
0.0,-0.5829597,0.38684505,-6.7557206,-0.0028976794276594975,-0.44877390265013933,0.398238140268267,-10854.994121759479,-11529.374517596541,
0.0,0.14274822,-0.5587743,-6.922487,-0.0028976794276594975,-0.44877390265013933,0.398238140268267,Infinity,-Infinity,
0.0,2.106069,-2.2881339,-6.871785,-0.08404906430660454,-0.5219515562295631,0.28372937167123075,58216.19963681017,-3049.7459405746586,
0.0,2.0449824,-1.1464267,-6.9053826,-0.1691218250408072,-0.5553332276993672,0.15166688207416784,-1691.9009081492343,-783.0478878720484,
0.0,0.655875,1.1510375,-7.135679,-0.1691218250408072,-0.5553332276993672,0.15166688207416784,NaN,NaN,
0.0,-0.35877216,2.494941,-7.3781924,-0.10946119134555053,-0.5898835442865856,0.0074619286607901176,-29986.395475779926,-6235.020323990965,
0.0,0.027294682,1.8883518,-7.46127,-0.10946119134555053,-0.5898835442865856,0.0074619286607901176,Infinity,-Infinity,
0.0,1.3534832,0.22618751,-7.4533286,-0.12917374731175826,-0.5685913024145703,-0.1414853435313027,39505.09910857883,-755.6916872332364,
0.0,2.8458269,-0.74936426,-7.008008,-0.1952551646440663,-0.4949458914739214,-0.2773157294549551,43752.49916759522,11020.742370564565,
0.0,4.0901594,-0.655291,-6.414247,-0.1952551646440663,-0.4949458914739214,-0.2773157294549551,NaN,NaN,
0.0,4.2355456,-1.0034842,-6.2175484,-0.25910187950580876,-0.37647718708733907,-0.38875592889317084,3826.2015072331924,5478.238811447099,
0.0,3.6955404,-1.7194183,-6.598728,-0.25910187950580876,-0.37647718708733907,-0.38875592889317084,NaN,NaN,
0.0,3.28565,-1.6375624,-6.5254245,-0.2665718284482331,-0.22832921995100813,-0.48662640311080535,-12400.491510537147,3854.559718323616,
0.0,2.8171163,-0.61314136,-5.838201,-0.20726939197878622,-0.12290928856566159,-0.5494840621376177,-17038.040589130924,22438.045915307892,
0.0,2.3162067,-0.20508334,-4.9671073,-0.20726939197878622,-0.12290928856566159,-0.5494840621376177,-Infinity,Infinity,
0.0,1.8965423,-0.46286848,-4.373957,-0.1389669817832475,-0.06004425096424615,-0.5805884036995806,-15393.35229324159,19584.61263494574,
0.0,1.6980112,-0.98638,-4.3562417,-0.1389669817832475,-0.06004425096424615,-0.5805884036995806,-Infinity,Infinity,
0.0,1.6980112,-1.5355479,-4.1516023,-0.05936461354199709,-0.011182900506286316,-0.5969512660221988,-1369.5903249675387,5942.956751520533,
0.0,1.9130356,-1.3186907,-3.3287666,0.01416108006506302,-3.392826466371811E-4,-0.5998327911250823,-383.82645569023845,21915.17708468587,
0.0,2.1940336,-1.1036662,-2.1833942,0.01416108006506302,-3.392826466371811E-4,-0.5998327911250823,NaN,NaN,
0.0,2.2642832,-1.0169233,-1.0251937,0.04461391169043427,-0.0090024383691268,-0.598271329412766,-8363.959429024635,32296.889328808767,
0.0,2.038263,-1.0547969,-0.49190843,0.04461391169043427,-0.0090024383691268,-0.598271329412766,-Infinity,Infinity,
0.0,1.7163371,-1.2185088,-0.21518645,0.05370079406469084,-0.020468092788858427,-0.5972414172716409,-11821.32578272872,11010.44345894612,
0.0,1.3895242,-1.4988959,0.1250655,0.0502743232763007,-0.02971848809925014,-0.5971510131402565,-12897.755329546373,13112.75692129981,
0.0,1.2899531,-1.7560701,0.603373,0.0502743232763007,-0.02971848809925014,-0.5971510131402565,-Infinity,Infinity,
0.0,1.4286195,-1.3425144,0.9491227,0.0342077882754992,-0.027274674022146454,-0.5984028308660599,-662.1734704858712,7553.518250071351,
0.0,1.4286195,-0.45431638,1.1714777,0.0342077882754992,-0.027274674022146454,-0.5984028308660599,NaN,NaN,
0.0,1.2074863,-0.07191472,1.1714777,0.024777583977889202,-0.020804583614476676,-0.5991270893917893,-5952.672214095535,2827.9913461227343,
0.0,0.99673784,-0.24784392,2.280809,-0.001427257938897225,0.0012366353069757294,-0.5999970518911935,-20085.189485724986,32485.27830904812,
0.0,1.1647257,-0.3956733,3.2710214,-0.001427257938897225,0.0012366353069757294,-0.5999970518911935,NaN,NaN,
0.0,1.2899531,0.52795494,4.12379,-0.05019985569143054,0.03865615759511906,-0.5966453758965797,-7303.609688373024,21487.375638970887,
0.0,1.2899531,2.1852324,4.852552,-0.05019985569143054,0.03865615759511906,-0.5966453758965797,NaN,NaN,
0.0,1.4939822,3.202323,5.0535264,-0.13740624338969823,0.06048488352473742,-0.5809140485069715,3837.061596784403,3721.629367484806,
0.0,2.2673376,2.952479,5.115834,-0.25181262504211777,0.05918016504681958,-0.5413761525452142,22034.453004225154,-3391.3188299580593,
0.0,3.3363519,2.7918215,5.9857063,-0.25181262504211777,0.05918016504681958,-0.5413761525452142,NaN,NaN,
0.0,3.2282286,4.430773,8.207424,-0.4479766066545639,-0.00750193791657398,-0.39907481683011276,-8432.426306850759,66260.30052091599,
0.0,1.4970365,6.3385053,10.201288,-0.4479766066545639,-0.00750193791657398,-0.39907481683011276,-Infinity,Infinity,
0.0,0.7084094,5.896239,10.4187565,-0.5522300359368364,-0.22753029499514532,-0.05720123144524554,-22567.97655584455,3646.8100292535096,
0.0,3.869637,3.1968253,9.382729,-0.5006912006478736,-0.22039281611451594,0.24644544387984516,84887.6259135635,-8960.863368147859,
0.0,8.3509445,2.2475405,9.080961,-0.5006912006478736,-0.22039281611451594,0.24644544387984516,NaN,NaN,
0.0,9.649644,2.853519,9.54705,-0.31301156149654147,-0.05926747492392501,0.5084399250608362,41110.83453834859,25423.199182018125,
0.0,10.873207,2.526706,8.511635,-0.31301156149654147,-0.05926747492392501,0.5084399250608362,NaN,NaN,
0.0,12.73268,1.2200654,5.82566,-0.08006926793176108,0.017012977290639147,0.5943900230882161,23393.375151003613,-55164.41224196443,
0.0,13.495651,1.2945908,3.2502522,-0.08006926793176108,0.017012977290639147,0.5943900230882161,NaN,NaN,
0.0,11.843261,3.9836197,0.9033078,0.22876199337595898,-0.07642837998180259,0.5493875514882413,-76618.8350272586,-84957.37429259198,
0.0,9.889104,5.814994,-0.4021112,0.545397638944612,-0.06425017391889654,0.24168855826303443,-69668.45304705715,-67109.33259628723,
0.0,9.8041935,5.4539723,-0.41371766,0.545397638944612,-0.06425017391889654,0.24168855826303443,-Infinity,-Infinity,
0.0,11.041805,3.6354265,-0.5927012,0.588786465660067,-0.009894592282984001,-0.11503314091734781,21456.748249659722,23143.290609334825,
0.0,11.309365,3.1546755,-1.2664855,0.4215599241665491,0.05514061658344138,-0.4233754496303739,-11135.994833892593,-5831.353768430219,
0.0,9.839623,4.6647344,-1.6531632,0.4215599241665491,0.05514061658344138,-0.4233754496303739,-Infinity,-Infinity,
0.0,8.619114,5.5828648,-1.9298851,0.007069992680861534,0.006744489427479746,-0.5999204577909352,-23652.36455601372,-36219.253494301774,
0.0,8.22022,5.5743127,-2.220046,0.007069992680861534,0.006744489427479746,-0.5999204577909352,-Infinity,-Infinity,
0.0,8.170129,3.637259,-1.9976913,-0.09952292879077593,-0.29196926187823896,-0.5146349826560691,5742.558976762203,815.4809031056914,
0.0,7.79017,1.4283704,-0.7649652,-0.07713037812240893,-0.4643544630235591,-0.37205626731856883,31880.59285228233,-192.12772596393359,
0.0,6.6197524,1.3477361,-0.03742466,-0.07713037812240893,-0.4643544630235591,-0.37205626731856883,NaN,NaN,
0.0,4.8647366,2.7747173,-0.52672774,0.1488236924117372,-0.5539585219502116,-0.17601560483634326,-24725.595646597063,-54161.4596429406,
0.0,2.9704432,3.3709219,-0.9909853,0.1488236924117372,-0.5539585219502116,-0.17601560483634326,-Infinity,-Infinity,
0.0,1.1696126,3.0502176,-0.4552565,0.4185327674289438,-0.4282818466865315,-0.037483476323228425,10608.70967618128,-51837.90783286112,
0.0,0.9698597,2.1168153,0.31015766,0.4185327674289438,-0.4282818466865315,-0.037483476323228425,NaN,NaN,
0.0,1.1848843,1.479683,0.5819927,0.5022490502639901,-0.32642024958726185,0.03457948493745452,8404.789145341012,6796.465226551393,
0.0,0.8495193,1.4857917,0.14888924,0.5592501971000027,-0.1970771789974006,0.09165059286368411,-12897.80611430637,-9982.154801446068,
0.0,-0.07777414,1.7215858,-0.24389711,0.5592501971000027,-0.1970771789974006,0.09165059286368411,NaN,NaN,
0.0,-0.8645686,1.5981909,-0.24878402,0.5883627804463338,-0.0431133799379824,0.1094097969379908,1134.0895733662885,-23405.4178802025,
0.0,-1.1467884,1.2273957,-0.052696288,0.5859738140310944,0.07046894743818466,0.10802242974047982,6621.433757620976,-8931.120383090458,
0.0,-1.3019481,0.9341804,-0.13333051,0.5859738140310944,0.07046894743818466,0.10802242974047982,NaN,NaN,
0.0,-1.5707288,0.822392,-0.4479261,0.5739320618406274,0.15019637828876894,0.08968313637765671,-8318.658555324624,-6795.620606904665,
0.0,-1.5707288,0.6788387,-0.65684205,0.5739320618406274,0.15019637828876894,0.08968313637765671,NaN,NaN,
0.0,-1.0997517,0.38501248,-0.26711,0.5655320195803939,0.18647244285733466,0.07349552023333782,9600.091508880134,12327.911287784938,
0.0,-0.93237466,0.14799677,0.18798462,0.5650973619974217,0.19364788912090095,0.056262732894913334,12725.494509185704,3029.0301792678315,
0.0,-1.2023771,0.15715975,0.31015766,0.5650973619974217,0.19364788912090095,0.056262732894913334,Infinity,-Infinity,
0.0,-1.2023771,0.21274848,0.029770518,0.5616605370990752,0.208162501517215,0.0347252449653562,-8264.347406271943,1235.4899934364016,
0.0,-1.0386652,0.29216096,-0.14493693,0.5616605370990752,0.208162501517215,0.0347252449653562,-Infinity,Infinity,
0.0,-0.89266837,0.36851913,0.01938581,0.5514259017467126,0.23557456035558996,0.020835786674025733,4137.575380433881,3511.0384356006107,
0.0,-0.89266837,0.423497,0.20814317,0.5514259017467126,0.23557456035558996,0.020835786674025733,NaN,NaN,
0.0,-0.89266837,0.41311228,0.09635483,0.5388169751004844,0.26387791109804976,0.006689094731260453,-3280.8855481295886,578.8187939493714,
0.0,-0.7949299,0.21397021,-0.1931953,0.5300170271521409,0.28113908484896233,-0.006541751242963924,-9013.700791903344,4425.035397059043,
0.0,-0.6831416,0.06614082,-0.2072452,0.5300170271521409,0.28113908484896233,-0.006541751242963924,-Infinity,Infinity,
0.0,-0.527371,0.0191042,-0.10767417,0.5289860636030882,0.28267270283972123,-0.01642912636832099,2075.9181342103207,4026.8787193613857,
0.0,-0.58601403,0.22679839,-0.024596488,0.5289860636030882,0.28267270283972123,-0.01642912636832099,Infinity,-Infinity,
0.0,-0.894501,0.54750264,-0.15226732,0.5054736029029864,0.3219257199717419,-0.029330806316562374,-1894.5783067531443,-8249.914454738346,
0.0,-0.894501,0.6476845,-0.49496275,0.470484726959268,0.3700989555982686,-0.040876807279481925,-9961.243405346746,2254.2037205569563,
0.0,-0.80531466,0.346528,-0.70510036,0.470484726959268,0.3700989555982686,-0.040876807279481925,-Infinity,Infinity,
0.0,-0.66664827,0.02154766,-0.70510036,0.4620043397293676,0.3794517211016296,-0.05067948336824472,-915.0425662299845,4030.002319005577,
0.0,-0.47850174,-0.066416934,-0.24023192,0.4620043397293676,0.3794517211016296,-0.05067948336824472,NaN,NaN,
0.0,-0.6110595,0.14799677,0.064589836,0.4560821149319849,0.38488309515860525,-0.062081689011574584,9742.659567073113,-5903.527145033364,
0.0,-0.48399955,0.36424306,-0.15471078,0.43567020406248036,0.4067305272262942,-0.06900565284531013,-7249.422808401645,5234.197473680563,
0.0,-0.3752655,0.16449013,-0.2701643,0.43567020406248036,0.4067305272262942,-0.06900565284531013,-Infinity,Infinity,
