Time,GyroX,GyroY,GyroZ,PosX,PosY,PosZ,TorPie,TorThe,
Started:
0.0,-0.110463984,-0.04705434,0.15815546,-1.1841620132789628E-5,0.0031875604904969507,0.5999915565473614,0.0,0.0,
0.0,-0.110463984,-0.05194126,0.14044037,-4.487256391178512E-5,0.006026001659381475,0.5999697608218969,1.7537119641542265,-527.9476594575815,
0.0,-0.010892949,-0.05194126,0.15387939,-7.174037236271667E-5,0.009132415809334252,0.5999305146806874,2965.3815733539122,385.4798326568307,
0.0,0.06546521,-0.117914714,0.15449026,-7.174037236271667E-5,0.009132415809334252,0.5999305146806874,NaN,NaN,
0.0,0.06546521,-0.12891027,0.13372084,-6.822703962152966E-5,0.01183165136254866,0.5998833519788128,5.812176725378213,-618.9495810637776,
0.0,0.06546521,-0.09653442,0.09951239,-6.822703962152966E-5,0.01183165136254866,0.5998833519788128,NaN,NaN,
0.0,0.06546521,-0.06782376,0.061638746,-4.753708198763398E-5,0.013064327237182169,0.5998577745635175,13.167265061071252,-1128.6457549969568,
0.0,0.06546521,-0.04827607,0.04453452,-4.753708198763398E-5,0.013064327237182169,0.5998577745635175,NaN,NaN,
0.0,0.16747971,-0.017732807,0.030484619,2.666361700504829E-5,0.013637711101114943,0.5998450139287682,3045.174163711648,-455.9637387942075,
0.0,0.29331794,-0.017121943,-0.036710557,1.512883062011373E-4,0.012821359068328878,0.5998629997538767,3775.665900629598,-2050.5424032010505,
0.0,0.37089783,-0.10875173,-0.070919015,1.512883062011373E-4,0.012821359068328878,0.5998629997538767,Infinity,-Infinity,
0.0,0.37089783,-0.16983825,-0.06481036,2.738654844236501E-4,0.011333830739806898,0.5998929053495198,-3.3740080207043337,182.02088287243015,
0.0,0.37089783,-0.10997346,-0.07580593,3.507840862061188E-4,0.009584096497421708,0.5999233706525218,7.28218005265306,-327.6127257897552,
0.0,0.24628133,0.017086511,-0.13383813,3.507840862061188E-4,0.009584096497421708,0.5999233706525218,NaN,NaN,
0.0,0.14304508,0.11177062,-0.22852224,2.087931942880859E-4,0.005017283167464532,0.5999790095372083,-3024.0278467912867,-2764.489629949452,
0.0,0.06302174,0.11177062,-0.33359107,2.087931942880859E-4,0.005017283167464532,0.5999790095372083,NaN,NaN,
0.0,-0.044490535,0.23821972,-0.42522085,-4.5392375875541056E-4,-0.011684386290971087,0.5998860705837856,-1598.656735543535,-1361.4010084084082,
0.0,-0.18987647,0.25288048,-0.5449504,-4.5392375875541056E-4,-0.011684386290971087,0.5998860705837856,NaN,NaN,
0.0,-0.3847425,0.27181733,-0.7330969,-4.5392375875541056E-4,-0.011684386290971087,0.5998860705837856,NaN,NaN,
0.0,-0.554563,0.3109127,-0.90841526,-5.895979936431972E-4,-0.02980968987280844,0.5992587616164847,-5102.397575499108,-5264.939979830911,
0.0,-0.70850104,0.37688613,-1.0867879,-5.895979936431972E-4,-0.02980968987280844,0.5992587616164847,-Infinity,-Infinity,
0.0,-0.81540245,0.5369329,-1.2639388,5.30614923862492E-4,-0.05538314681485327,0.5974382429229962,-3321.8860534221367,-5360.42977802494,
0.0,-0.81540245,0.7556226,-1.4557505,5.30614923862492E-4,-0.05538314681485327,0.5974382429229962,NaN,NaN,
0.0,-0.6865099,0.90039766,-1.6652774,0.00344206183966087,-0.08937484182779654,0.5932961473571006,3484.650136286524,-6018.870970346079,
0.0,-0.6865099,1.0702181,-1.8876323,0.009291408179327946,-0.1279662534268542,0.5861214347967231,-609.3540731707726,-6598.616187433978,
0.0,-0.7372117,1.2779124,-2.1845126,0.009291408179327946,-0.1279662534268542,0.5861214347967231,-Infinity,-Infinity,
0.0,-0.7372117,1.5399735,-2.4984975,0.021375236979186325,-0.17801816847085564,0.5725841942881376,-1340.579152924592,-9260.952897144442,
0.0,-0.49653083,1.9223752,-2.8460798,0.021375236979186325,-0.17801816847085564,0.5725841942881376,NaN,NaN,
0.0,-0.30044308,2.0634851,-3.2022142,0.04096833686376698,-0.23691548357477404,0.5497205450293612,3468.1970567074186,-9138.450293348542,
0.0,-0.30044308,2.1826038,-3.544299,0.07230831884373055,-0.2936151421403075,0.5182293738704422,-2878.4339357185036,-9780.130310651313,
0.0,-0.30044308,2.204595,-3.8173554,0.07230831884373055,-0.2936151421403075,0.5182293738704422,NaN,NaN,
0.0,-0.30044308,2.076924,-4.155775,0.11944899154543902,-0.3466506822810946,0.47493712373645774,-3514.412917485782,-9453.575547866387,
0.0,-0.11535091,1.9058819,-4.475868,0.11944899154543902,-0.3466506822810946,0.47493712373645774,NaN,NaN,
0.0,-0.0035625661,1.7727133,-4.7519794,0.17859333542681766,-0.3890982798964052,0.42036529082812363,-272.586321358685,-6184.438721858831,
0.0,-0.0035625661,1.6835269,-4.920578,0.17859333542681766,-0.3890982798964052,0.42036529082812363,NaN,NaN,
0.0,-0.0035625661,1.5521909,-4.966393,0.2480402082500799,-0.4121671240725056,0.35860053755576954,-615.3077945458555,-1218.8907754951272,
0.0,-0.06892515,1.5271454,-4.963339,0.3237523984809,-0.4101269787546901,0.2949241841315233,-1646.57568511961,-886.7072715505317,
0.0,-0.1294008,1.4410135,-4.970669,0.3237523984809,-0.4101269787546901,0.2949241841315233,-Infinity,-Infinity,
0.0,-0.19109818,1.2394278,-4.9725018,0.3985668584332852,-0.38620842667908223,0.2280077611199225,-1586.5895420487716,-1023.4752423315025,
0.0,-0.19109818,0.9914166,-4.8967543,0.4645088834102074,-0.34421807027851814,0.1604538747957354,1262.6747476165385,1871.2931405913764,
0.0,-0.110463984,0.85152847,-4.764197,0.4645088834102074,-0.34421807027851814,0.1604538747957354,Infinity,Infinity,
0.0,-0.110463984,0.8423655,-4.649965,0.5163220202712163,-0.2897413016883246,0.09727064351198174,1983.1881328175084,2767.087513359005,
0.0,-0.047544863,0.79288536,-4.5064116,0.5163220202712163,-0.2897413016883246,0.09727064351198174,Infinity,Infinity,
0.0,0.03614367,0.8509175,-4.46976,0.554526854851746,-0.22535039850863214,0.04143903655324717,2646.3120910128096,2379.500581194955,
0.0,0.13815817,1.1282504,-4.401343,0.554526854851746,-0.22535039850863214,0.04143903655324717,Infinity,Infinity,
0.0,0.2872093,1.3322794,-4.2199154,0.5822420236107849,-0.14471418767581673,0.0072151533023705776,6874.425666550197,6997.467209208689,
0.0,0.2872093,1.3762617,-4.110571,0.5971120519566142,-0.056251529745862124,-0.01711699213185643,2200.4077343171407,2403.634475053369,
0.0,0.2872093,1.4544524,-3.9810674,0.5971120519566142,-0.056251529745862124,-0.01711699213185643,NaN,NaN,
0.0,0.35929137,1.3860356,-3.8753877,0.5983577466285885,0.03341479230406001,-0.029180255568866657,3747.7355165414815,3744.343612110161,
0.0,0.5058991,1.3670988,-3.6823542,0.5983577466285885,0.03341479230406001,-0.029180255568866657,Infinity,Infinity,
0.0,0.5058991,1.3041795,-3.4624429,0.588124233248353,0.11531463815527977,-0.028503492827792295,4843.175133754288,4415.523492407582,
0.0,0.5058991,1.2485908,-3.2095447,0.5679624428630401,0.19243931270181208,-0.019641869415415625,5777.446302542219,4840.123181315033,
0.0,0.5058991,1.1679567,-2.935266,0.5679624428630401,0.19243931270181208,-0.019641869415415625,NaN,NaN,
0.0,0.5058991,0.9816428,-2.6383858,0.5441700175487753,0.25261927268002005,-0.007907191777958863,6965.653195131413,5455.441186101551,
0.0,0.4185453,0.7495139,-2.2523189,0.5193855818509104,0.3003935080340777,0.0015447674911300644,7680.605103216253,4775.011818359037,
0.0,0.4185453,0.5699195,-1.9029039,0.5193855818509104,0.3003935080340777,0.0015447674911300644,NaN,NaN,
0.0,0.3006483,0.39215776,-1.5180589,0.5020100584827644,0.3285758614993841,0.004881908673777894,7234.843943786435,3873.721796917882,
0.0,0.16503625,0.28159115,-1.0990052,0.5020100584827644,0.3285758614993841,0.004881908673777894,NaN,NaN,
0.0,0.16503625,0.16491589,-0.7214905,0.49365928406252835,0.3409720033347972,0.0062155298211008635,9153.09617740368,6542.299084951755,
0.0,0.16503625,-0.014067615,-0.40628403,0.49365928406252835,0.3409720033347972,0.0062155298211008635,NaN,NaN,
0.0,0.16503625,-0.22787045,-0.06297776,0.4981962002612537,0.33436151875949477,-0.0017173899740024325,8277.956559595083,6012.938611318375,
0.0,0.110058375,-0.39646927,0.36951482,0.5088735152591294,0.3176310868156272,-0.01258041201114778,9346.289058081133,6400.352391835351,
0.0,-0.052431785,-0.5510182,0.84843314,0.5088735152591294,0.3176310868156272,-0.01258041201114778,NaN,NaN,
0.0,-0.052431785,-0.77581656,1.4195921,0.5316648935769905,0.2766190514629221,-0.02853716726920646,13367.992756348518,10537.582794892369,
0.0,-0.052431785,-0.9517458,1.8465871,0.5316648935769905,0.2766190514629221,-0.02853716726920646,NaN,NaN,
0.0,0.006211278,-1.0757514,2.2833557,0.5597561306711406,0.211865400894874,-0.04226292334845601,11055.879778510318,9754.422135818826,
0.0,0.10700405,-1.2119744,2.7372286,0.5830307985293927,0.13277811757884,-0.049447831788953026,11984.47093603371,11373.209671433415,
0.0,0.22795537,-1.4373837,3.1739972,0.5830307985293927,0.13277811757884,-0.049447831788953026,Infinity,Infinity,
0.0,0.35806966,-1.6927253,3.555177,0.5973238538447252,0.02137448259689928,-0.05241539594461046,10690.267872815299,10856.507481922323,
0.0,0.5767594,-2.143544,3.9436874,0.5973238538447252,0.02137448259689928,-0.05241539594461046,Infinity,Infinity,
0.0,0.9890934,-2.6359015,4.426271,0.5809235131155799,-0.14057368883139545,-0.052601697007005274,18602.85674988708,18910.687173014467,
0.0,1.3714951,-3.0140269,5.0805078,0.511118325777702,-0.31266151359554994,-0.0316364280627344,20219.038301009383,22554.569883779575,
0.0,1.3714951,-3.2333274,6.143413,0.511118325777702,-0.31266151359554994,-0.0316364280627344,NaN,NaN,
0.0,1.2847522,-3.353668,6.872786,0.3766512027156162,-0.46602661716670196,0.030872191293624274,7489.742974373865,18238.640688387415,
0.0,1.2847522,-3.3481703,7.3944654,0.3766512027156162,-0.46602661716670196,0.030872191293624274,NaN,NaN,
0.0,1.2847522,-3.240658,7.7322736,0.20986023002110984,-0.5467388844331748,0.13051936528532665,3535.5610185859136,9426.223913336602,
0.0,1.467401,-3.1252043,7.7603736,0.05314990375406624,-0.5456247348181674,0.2438621846366675,5479.153870064058,2178.2379356820625,
0.0,1.8192593,-3.3603876,7.5276337,0.05314990375406624,-0.5456247348181674,0.2438621846366675,NaN,NaN,
0.0,2.3470469,-3.9614787,6.928986,-0.08757050851131777,-0.48782961924007334,0.338162235090473,13459.82702404588,-15811.173457679788,
0.0,2.9701295,-4.737889,6.3358355,-0.08757050851131777,-0.48782961924007334,0.338162235090473,NaN,NaN,
0.0,4.2718835,-5.8997545,5.4769588,-0.22214622824795438,-0.39855514170050005,0.3896214584818605,40647.392562153225,-28501.81493300524,
0.0,5.800268,-6.5631537,4.5368376,-0.32340940694944387,-0.30694283331535394,0.40148783441491964,51756.53638849332,-40126.15513665511,
0.0,7.2272496,-6.905849,3.3749719,-0.32340940694944387,-0.30694283331535394,0.40148783441491964,Infinity,-Infinity,
0.0,8.354296,-6.8588123,2.621164,-0.44115025882313486,-0.22806459847730237,0.3367090979939479,40330.70959232772,-36315.247416099846,
0.0,9.347563,-6.4067726,2.090933,-0.44115025882313486,-0.22806459847730237,0.3367090979939479,Infinity,-Infinity,
0.0,10.232706,-5.7134404,1.764731,-0.5459007240657272,-0.15026363311930718,0.19852775281187052,26252.54100337893,-24689.318352063765,
0.0,10.664588,-5.2003136,1.2467173,-0.5459007240657272,-0.15026363311930718,0.19852775281187052,Infinity,-Infinity,
0.0,10.827078,-4.5289726,0.46786413,-0.5951544918467533,-0.07597648786609547,-0.004328133130577323,20874.739938215327,-18654.769990917448,
0.0,11.128846,-3.7776084,-0.06908642,-0.5537939881248208,-0.027379062342556652,-0.22926542319390053,18322.17249411902,-16233.428250875171,
0.0,11.422672,-2.904071,-0.17720957,-0.5537939881248208,-0.027379062342556652,-0.22926542319390053,Infinity,-Infinity,
0.0,11.740321,-2.247391,-0.4276643,-0.422642883822001,0.017552675613599116,-0.4255172440027036,11077.917779760439,-11881.568310872619,
0.0,11.87288,-1.5937651,-1.1332136,-0.21671603551787594,0.03183986120698512,-0.5585878729420867,20684.16736404671,-12603.130116619477,
0.0,12.093402,-1.5632219,-1.8644193,-0.21671603551787594,0.03183986120698512,-0.5585878729420867,Infinity,-Infinity,
0.0,12.334083,-1.7922964,-2.7685,0.047023884594465104,-0.011864444403172018,-0.5980368030873021,27668.481035808967,-16745.66422655445,
0.0,12.145326,-1.770916,-3.774595,0.047023884594465104,-0.011864444403172018,-0.5980368030873021,NaN,NaN,
0.0,11.582719,-1.3323148,-4.786188,0.2758999051258643,-0.11807908457068221,-0.51955423273102,22847.24564782349,5775.373374468394,
0.0,10.882055,-0.6964041,-5.870474,0.391264668135489,-0.2863222560562385,-0.3534565797462561,24225.51232444375,9805.948139982896,
0.0,10.317616,-0.30361775,-6.852745,0.391264668135489,-0.2863222560562385,-0.3534565797462561,NaN,NaN,
0.0,9.606569,-0.1570101,-7.541801,0.33719782229091094,-0.47458133910422867,-0.14515581223820992,13073.28233539723,13897.667691904018,
0.0,8.870477,-0.30117428,-7.981624,0.33719782229091094,-0.47458133910422867,-0.14515581223820992,NaN,NaN,
0.0,7.8423905,-0.39097145,-8.247961,0.19059543297380116,-0.566404208273287,0.0534759982615588,-1395.5584492455744,26965.152865353826,
0.0,6.7672677,-0.0067372327,-8.39518,0.19059543297380116,-0.566404208273287,0.0534759982615588,NaN,NaN,
0.0,5.823481,0.57175213,-8.461763,-0.0448989275164258,-0.558590856635199,0.21438369761168713,-6876.18595259344,26109.39018583864,
0.0,5.2792,0.9443799,-8.126399,-0.24073495983416499,-0.4204529378009949,0.3539294206736504,-14932.66489298751,18658.666365814188,
0.0,4.995759,0.9963035,-7.6798563,-0.24073495983416499,-0.4204529378009949,0.3539294206736504,-Infinity,Infinity,
0.0,4.5070662,0.7702834,-7.206436,-0.3044608506877105,-0.24160030104043942,0.45709179991104054,-18457.25536899517,18714.47700170173,
0.0,3.7819693,0.66765803,-6.7311826,-0.3044608506877105,-0.24160030104043942,0.45709179991104054,-Infinity,Infinity,
0.0,2.953025,0.7910528,-6.403759,-0.2830529693660539,-0.09798775308832237,0.5198840691808048,-18624.31747359611,26553.701902141464,
0.0,2.1527917,0.7592878,-5.9431667,-0.21551452773836863,-0.005929269604758747,0.5599271030285032,-22360.36686730751,27390.547196215244,
0.0,1.5480351,0.6615493,-5.44409,-0.21551452773836863,-0.005929269604758747,0.5599271030285032,-Infinity,Infinity,
0.0,1.2798654,0.61268014,-5.083679,-0.14443571979154887,0.03206981120370135,0.5814721649983653,-13140.144288476766,11849.139622371971,
0.0,0.97931963,0.61573446,-4.654852,-0.0773324184899206,0.036777430418694856,0.5938578502238797,-15445.349127254993,13755.661697874133,
0.0,0.68976945,0.5845803,-4.14539,-0.0773324184899206,0.036777430418694856,0.5938578502238797,-Infinity,Infinity,
0.0,0.4051063,0.5735848,-3.5888917,-0.03366425018845895,0.02404788139002793,0.598572005919196,-18626.979556851387,15256.555852714782,
0.0,0.14793202,0.6798753,-3.1154714,-0.03366425018845895,0.02404788139002793,0.598572005919196,-Infinity,Infinity,
0.0,-0.12451389,0.6694906,-2.6444943,-0.010030533756634255,0.009657681614047254,0.5998384334040532,-16213.614451528116,13932.32900912991,
0.0,-0.32243425,0.61145836,-2.1612997,-0.010030533756634255,0.009657681614047254,0.5998384334040532,-Infinity,Infinity,
0.0,-0.47453967,0.5106656,-1.7055943,-0.001668611742100738,0.001935266276318871,0.5999945825501459,-14020.027825646632,10742.868686019263,
0.0,-0.47453967,0.418425,-1.231563,0.0021731211560200507,-0.0028940717641744167,0.5999891086538948,-12113.856085777825,7268.648097342052,
0.0,-0.47453967,0.3671123,-0.88947845,0.0021731211560200507,-0.0028940717641744167,0.5999891086538948,NaN,NaN,
0.0,-0.47453967,0.27670425,-0.5315114,0.0011267899724500946,-0.0016070215698831625,0.5999968136884245,-9096.479814174632,5573.650616385219,
0.0,-0.47453967,0.32068652,-0.21935926,0.0011267899724500946,-0.0016070215698831625,0.5999968136884245,NaN,NaN,
0.0,-0.47453967,0.30113885,-0.021438926,-0.0028757289992504304,0.004274587476523888,0.5999779051722309,-4998.058006981466,3132.3393351390487,
0.0,-0.47453967,0.35061893,0.16304237,-0.00788583263049131,0.012176656234565047,0.5998246171147856,-4624.012693818268,2974.254758018244,
0.0,-0.47453967,0.41720325,0.3365281,-0.00788583263049131,0.012176656234565047,0.5998246171147856,NaN,NaN,
0.0,-0.42444873,0.4251445,0.53750277,-0.01475867321135535,0.023458777832597585,0.5993595714743123,-4165.277915593777,2067.8157597393197,
0.0,-0.42444873,0.39765555,0.78429234,-0.01475867321135535,0.023458777832597585,0.5993595714743123,NaN,NaN,
0.0,-0.6248125,0.39215776,1.0738424,-0.027605173895465972,0.042976739848056916,0.5978218654553074,-10493.631861066515,9797.091997620733,
0.0,-0.7005598,0.300528,1.1972371,-0.04331567277987189,0.06422812085378449,0.5949777555450697,-4307.659907021163,3955.4548831397283,
0.0,-0.78058314,0.29564106,1.2888671,-0.04331567277987189,0.06422812085378449,0.5949777555450697,-Infinity,Infinity,
0.0,-0.78058314,0.35245153,1.3224646,-0.06215024047606071,0.08757463706988332,0.5903118321371139,-814.3819621903509,582.5365992882705,
0.0,-0.72743785,0.25226963,1.3279624,-0.06215024047606071,0.08757463706988332,0.5903118321371139,NaN,NaN,
0.0,-0.72743785,0.15392034,1.3475101,-0.08278193561976394,0.10746752934179117,0.5844637797866062,-472.0674420569916,341.3744337867497,
0.0,-0.83372843,0.031136412,1.4030988,-0.10743202677254912,0.12536093799755488,0.5768388193058314,-3200.3289939614447,3537.10956728244,
0.0,-0.9363538,-0.059271645,1.4440268,-0.10743202677254912,0.12536093799755488,0.5768388193058314,-Infinity,Infinity,
0.0,-0.87771076,-0.10875173,1.4629636,-0.13582201084601814,0.13898084639875657,0.5676589947444323,562.2574067572561,-1089.3503491937013,
0.0,-0.9485711,-0.15212315,1.5026698,-0.13582201084601814,0.13898084639875657,0.5676589947444323,-Infinity,Infinity,
0.0,-1.1471022,0.059236214,1.5057242,-0.16937041117974677,0.1540148768274153,0.5546107735546342,-3537.9179956017415,4849.86296334525,
0.0,-1.1471022,-0.08248452,1.5362674,-0.20566286999119238,0.16203161193635562,0.539859768134765,-739.4046151127428,530.8968036065739,
0.0,-1.1471022,-0.27490708,1.6040735,-0.20566286999119238,0.16203161193635562,0.539859768134765,NaN,NaN,
