Time,GyroX,GyroY,GyroZ,PosX,PosY,PosZ,TorPie,TorThe,
Started:
0.0,-0.047544863,0.1948483,-0.22852224,7.580331403579557E-6,-0.00460686896457055,0.59998233749929,0.0,0.0,
0.0,-0.047544863,0.22966762,-0.2767806,3.500096701369469E-5,-0.010198775937624388,0.5999133373701042,-20.485751207523467,-1438.065421820295,
0.0,-0.19781771,0.23394369,-0.3720756,1.8634271754736713E-4,-0.017786347476615765,0.5997363084973785,-4540.129549471751,-2938.2591770475597,
0.0,-0.29738876,0.15514205,-0.46553797,1.8634271754736713E-4,-0.017786347476615765,0.5997363084973785,-Infinity,-Infinity,
0.0,-0.4757614,0.050073236,-0.46553797,7.354264603599259E-4,-0.027377327390719627,0.5993746488658765,-5314.416991427113,-126.3709764433269,
0.0,-0.7188857,-0.010402424,-0.6481866,0.0020960426350559573,-0.040691361026151854,0.5986149416388982,-7371.181948721528,-5611.577721766322,
0.0,-0.9070323,-0.062936835,-0.8387766,0.0020960426350559573,-0.040691361026151854,0.5986149416388982,-Infinity,-Infinity,
0.0,-0.8215111,-0.18388815,-0.8387766,0.004557886826807504,-0.05749705814674911,0.5972213514119982,2548.351585410689,43.97644846052999,
0.0,-0.6742926,-0.31094813,-1.313419,0.004557886826807504,-0.05749705814674911,0.5972213514119982,NaN,NaN,
0.0,-0.6144278,-0.25902456,-1.5266109,0.008717138262187157,-0.08745780576504003,0.5935277350903768,1729.6355305426846,-6338.101393356138,
0.0,-0.6144278,-0.11608212,-1.7648484,0.014648357239485038,-0.12182079646102088,0.58732031106545,-33.14720842237763,-7099.953409561698,
0.0,-0.6144278,0.1453682,-1.9670447,0.014648357239485038,-0.12182079646102088,0.58732031106545,NaN,NaN,
0.0,-0.6865099,0.4391944,-2.0904396,0.024149359791861086,-0.16301938330959836,0.5769241871314043,-2219.168051319837,-3718.445241882493,
0.0,-0.6865099,0.7263011,-2.2449884,0.024149359791861086,-0.16301938330959836,0.5769241871314043,NaN,NaN,
0.0,-0.6865099,0.88207173,-2.4820042,0.038946919501028916,-0.21143312729106226,0.5601599760385705,-345.9996770742611,-7055.13982327494,
0.0,-0.6865099,1.0219598,-2.7245176,0.05984727875039195,-0.2619327823194458,0.5364788433692392,-601.3101377263105,-7202.405749619583,
0.0,-0.8606065,1.2754688,-2.9438183,0.05984727875039195,-0.2619327823194458,0.5364788433692392,-Infinity,-Infinity,
0.0,-0.9840013,1.55158,-3.1050866,0.09504791092962826,-0.3143379740291877,0.5021529262300174,-4292.37655395263,-5258.455984419299,
0.0,-0.9840013,1.6694771,-3.306672,0.09504791092962826,-0.3143379740291877,0.5021529262300174,NaN,NaN,
0.0,-0.9840013,1.6908573,-3.5064251,0.14385360779895823,-0.36279750086894286,0.4557237556861645,-1136.5262645586117,-5843.6087593179345,
0.0,-0.92657995,1.8765603,-3.6646392,0.20508191629513606,-0.3974888213461225,0.39993008529468643,466.280992611255,-4130.841551628306,
0.0,-0.87099123,2.0207245,-3.7807035,0.20508191629513606,-0.3974888213461225,0.39993008529468643,NaN,NaN,
0.0,-0.78302664,2.028055,-3.8802748,0.2760686218545094,-0.41330037267150305,0.33610853393982526,1543.6748352014083,-1981.5103388889906,
0.0,-0.6015997,1.9358143,-3.9908414,0.2760686218545094,-0.41330037267150305,0.33610853393982526,NaN,NaN,
0.0,-0.30532998,1.8337998,-4.1405034,0.34459220429285364,-0.41137369238024296,0.26838019034248317,6510.762385117267,-821.3002277482224,
0.0,0.0025460862,1.814863,-4.233966,0.40907643627084717,-0.3895575459786257,0.2022409856317076,7079.355626297039,1440.6056650420269,
0.0,0.2413944,1.7690481,-4.2449613,0.40907643627084717,-0.3895575459786257,0.2022409856317076,NaN,NaN,
0.0,0.50284475,1.5021,-4.215029,0.459748742406239,-0.3580428992288292,0.142955953978581,7277.574360369466,4492.395586652681,
0.0,0.7471908,1.3054013,-4.2186937,0.459748742406239,-0.3580428992288292,0.142955953978581,NaN,NaN,
0.0,0.8473728,1.2443148,-4.233355,0.499252389540464,-0.32050010536228585,0.08959220173168311,2340.5762561547367,1153.8351494954102,
0.0,0.7044302,1.1856718,-4.205255,0.5340262183694837,-0.27059481290937615,0.0399308643878175,-3112.054049830789,-1623.9485396092787,
0.0,0.54194015,1.0769378,-4.0983534,0.5340262183694837,-0.27059481290937615,0.0399308643878175,NaN,NaN,
0.0,0.39716503,0.93704957,-3.924257,0.5601063783154957,-0.21501526642510502,-0.0070220214091158495,-571.4389965300155,1788.0417659285413,
0.0,0.33485678,0.8454198,-3.7214496,0.5771825538648853,-0.15640358092412618,-0.04897191029916336,2103.9233033079518,3752.841995730724,
0.0,0.33485678,0.69026,-3.565068,0.5771825538648853,-0.15640358092412618,-0.04897191029916336,NaN,NaN,
0.0,0.39838678,0.5076113,-3.4416733,0.5835977791175425,-0.10716622083362927,-0.08904528023168815,3740.4625031145574,4070.2417347825512,
0.0,0.53644234,0.5076113,-3.3011744,0.5835977791175425,-0.10716622083362927,-0.08904528023168815,Infinity,Infinity,
0.0,0.64334375,0.4459139,-3.1539557,0.5840877975610659,-0.0652252805388556,-0.12077721692902572,5220.686162336114,5417.553084762351,
0.0,0.70809543,0.59068894,-2.9658093,0.5840877975610659,-0.0652252805388556,-0.12077721692902572,Infinity,Infinity,
0.0,0.778345,0.7030882,-2.7031374,0.5840595692685444,-0.021962682710635003,-0.1356174351778724,6611.135792032885,7360.438638952237,
0.0,0.83210105,0.62734085,-2.5113256,0.5840595692685444,-0.021962682710635003,-0.1356174351778724,Infinity,Infinity,
0.0,0.72947574,0.54915017,-2.3005772,0.5816816587117949,0.013511052738791064,-0.14650572679050716,1783.3869870535452,2761.157369485957,
0.0,0.5388857,0.54915017,-2.0531766,0.5776776389364436,0.04949328682220365,-0.15439879741300147,681.7555835518893,1708.918347629317,
0.0,0.39288896,0.49539402,-1.8002785,0.5776776389364436,0.04949328682220365,-0.15439879741300147,NaN,NaN,
0.0,0.39288896,0.44713566,-1.5638736,0.5732859828527892,0.07853280951809773,-0.15866886368766805,4775.193872666656,5180.289069847186,
0.0,0.39288896,0.36039278,-1.3940531,0.5684269915030674,0.1028250782257501,-0.1622275785089274,3474.9903419463644,3679.488517516205,
0.0,0.39288896,0.32618433,-1.2486672,0.5684269915030674,0.1028250782257501,-0.1622275785089274,NaN,NaN,
0.0,0.3397437,0.32618433,-1.1161095,0.5640956636963195,0.12340907447311925,-0.16299175177574787,1604.2412004866676,1742.2248216477324,
0.0,0.3397437,0.2247807,-1.0189818,0.5640956636963195,0.12340907447311925,-0.16299175177574787,NaN,NaN,
0.0,0.48329702,0.15392034,-0.90902615,0.5614027070122732,0.13379458187261006,-0.1640915568548702,5350.713135376235,5333.061481146392,
0.0,0.41793445,0.057403617,-0.69216895,0.5614027070122732,0.13379458187261006,-0.1640915568548702,NaN,NaN,
0.0,0.21024026,0.030525547,-0.3910124,0.5601679533375213,0.13700792528337086,-0.16565241040633502,1846.7546240848662,2092.13159046514,
0.0,0.030035023,0.030525547,-0.0764168,0.5598734913538266,0.13864487501119047,-0.16528551334777697,2723.289993675467,2940.5331942667012,
0.0,-0.11962696,-0.0775976,-0.0764168,0.5598734913538266,0.13864487501119047,-0.16528551334777697,NaN,NaN,
0.0,-0.22041972,-0.14173844,0.5698786,0.5621365495536433,0.1294534226591898,-0.16505859452926272,11255.40900849146,11733.160288071575,
0.0,-0.22041972,-0.19915979,0.86126137,0.5621365495536433,0.1294534226591898,-0.16505859452926272,NaN,NaN,
0.0,-0.273565,-0.27368534,1.1874634,0.5676638293518154,0.1087839738285775,-0.16100885843308907,5557.842402698547,5947.2259857774825,
0.0,-0.38352075,-0.43128857,1.6297299,0.5738495124082117,0.07874616806232612,-0.15651136295677615,6545.90594734065,7449.386484233383,
0.0,-0.47637224,-0.43128857,1.9919729,0.5738495124082117,0.07874616806232612,-0.15651136295677615,NaN,NaN,
0.0,-0.47637224,-0.8185772,2.364601,0.5795753883513817,0.028144654538719952,-0.15264428010400896,7315.092193666197,8355.502784944825,
0.0,-0.38352075,-0.9761804,2.7647176,0.5795753883513817,0.028144654538719952,-0.15264428010400896,Infinity,Infinity,
0.0,-0.21308935,-1.1631051,3.224699,0.5818635930733224,-0.04722691949697891,-0.13857996154155577,12569.870532958625,13852.812420182932,
0.0,-0.027386311,-1.3988992,3.723165,0.5729184957878815,-0.13636639283748875,-0.11475466308117072,13251.296286875466,15250.661370182637,
0.0,-0.027386311,-1.6634037,4.1831465,0.5729184957878815,-0.13636639283748875,-0.11475466308117072,NaN,NaN,
0.0,-0.1770483,-2.123996,4.6406846,0.5397444289402293,-0.24806700320135533,-0.08449107622059521,3490.0892907555494,9163.086175743569,
0.0,-0.28211713,-2.437981,5.1312094,0.5397444289402293,-0.24806700320135533,-0.08449107622059521,NaN,NaN,
0.0,-0.20575896,-2.7647936,5.8660803,0.47155613707342536,-0.3698724840269693,-0.02879555101640185,11930.76852609074,20563.84859521659,
0.0,-0.10679879,-2.9034603,6.4439588,0.37561951627425916,-0.46447393729682435,0.05633799052244754,9002.492724734879,17117.306983917024,
0.0,-0.4268922,-2.9162884,6.7597766,0.37561951627425916,-0.46447393729682435,0.05633799052244754,NaN,NaN,
0.0,-0.4268922,-3.3817677,6.7988715,0.2643133377539122,-0.514082156212334,0.1608043057871704,297.50071014615804,1126.49762900102,
0.0,0.24261613,-4.026841,6.6192775,0.2643133377539122,-0.514082156212334,0.1608043057871704,NaN,NaN,
0.0,1.4124231,-4.789812,6.3950896,0.1084526437098967,-0.5222780309035823,0.27470659096214095,34047.20017581735,-3256.5691626841062,
0.0,2.5993342,-5.3915143,6.276582,-0.028354548907756315,-0.4600799246185816,0.38408659326957506,35543.98901788222,-6467.250884556686,
0.0,3.4911976,-5.6902275,6.1739564,-0.028354548907756315,-0.4600799246185816,0.38408659326957506,Infinity,-Infinity,
0.0,4.350685,-5.8863153,5.960153,-0.11932428409231756,-0.36314264834214044,0.4624815248106052,26377.15138310518,-13223.986083322068,
0.0,5.9175544,-6.1831956,5.960153,-0.11932428409231756,-0.36314264834214044,0.4624815248106052,NaN,NaN,
0.0,7.34087,-6.2656627,4.9858236,-0.19339544770594005,-0.2968698344137933,0.48421744168500996,51099.24273929334,-45611.67993434262,
0.0,8.5259495,-5.97428,4.3725147,-0.2648192251690062,-0.28603020215114383,0.45613323716705084,38859.75079324037,-36603.797764351424,
0.0,9.408038,-5.257124,3.6993413,-0.2648192251690062,-0.28603020215114383,0.45613323716705084,Infinity,-Infinity,
0.0,9.890011,-4.382976,3.0958064,-0.3619422915658919,-0.31007283446488515,0.3644895657123437,22979.375148789793,-22706.339326579913,
0.0,10.069606,-3.4959996,2.6798072,-0.3619422915658919,-0.31007283446488515,0.3644895657123437,Infinity,-Infinity,
0.0,10.211327,-2.6352904,2.4745564,-0.4507129443560419,-0.32355915800768514,0.22840171117900007,7427.678660246336,-7049.421037180975,
0.0,10.639543,-2.0549686,2.190504,-0.4507129443560419,-0.32355915800768514,0.22840171117900007,Infinity,-Infinity,
0.0,11.163665,-1.5558915,1.724414,-0.5210041638673731,-0.29379823201181404,0.04729998636174984,20240.216903342483,-20711.623564848498,
0.0,11.738489,-1.177155,0.85393095,-0.5351671538453822,-0.2173093574966159,-0.16239701105522567,31072.731897872694,-28190.06782207938,
0.0,12.004827,-1.0769732,-0.035488825,-0.5351671538453822,-0.2173093574966159,-0.16239701105522567,Infinity,-Infinity,
0.0,12.210689,-0.90470916,-0.95789534,-0.458152902279359,-0.09635568245625693,-0.37524862318417523,26891.353567598457,-19016.505145018244,
0.0,12.4648075,-0.82651836,-2.152137,-0.26727309323991166,-0.0012863612297319429,-0.5371810379331964,34928.35184191076,-23539.610750766995,
0.0,12.57232,-0.7281691,-3.6597524,-0.26727309323991166,-0.0012863612297319429,-0.5371810379331964,Infinity,-Infinity,
0.0,12.3713455,-0.8381248,-5.360401,0.013409072323207007,-0.0037340786436124373,-0.5998385466492999,42595.27166959386,-17409.355554876973,
0.0,11.634642,-0.40379965,-6.802043,0.013409072323207007,-0.0037340786436124373,-0.5998385466492999,NaN,NaN,
0.0,10.363432,0.1807984,-7.532638,0.20030301811841783,-0.15930797180472311,-0.54267826533071,2176.1929430227874,23850.18041494563,
0.0,8.571154,0.8527502,-7.3951936,0.20030301811841783,-0.15930797180472311,-0.54267826533071,-Infinity,Infinity,
0.0,6.3915854,2.1154087,-6.745844,0.13736073847837788,-0.33752940465511794,-0.47666126036008677,-50122.066094359514,65616.08325988046,
0.0,5.632891,2.7513194,-6.3994827,-0.06628448189341397,-0.4241226563692162,-0.41919729057410604,-21723.747994653215,24325.819460284292,
0.0,5.632891,2.5271318,-6.3249574,-0.06628448189341397,-0.4241226563692162,-0.41919729057410604,NaN,NaN,
0.0,5.866242,1.6957443,-6.2321057,-0.2776183436400205,-0.41638100927822996,-0.3309908442800859,2306.8144747264255,-3588.9735658416557,
0.0,5.4600163,1.4416243,-6.0476246,-0.2776183436400205,-0.41638100927822996,-0.3309908442800859,-Infinity,Infinity,
0.0,4.194303,1.750722,-5.3915553,-0.437458514734714,-0.3086376082775087,-0.270874331107743,-40029.159297487124,40919.29776780194,
0.0,3.012279,2.0604308,-4.553448,-0.5217002262227058,-0.1560100728332166,-0.2519717439396373,-42795.65917522483,42295.8749700439,
0.0,2.2535844,2.055544,-3.8833292,-0.5217002262227058,-0.1560100728332166,-0.2519717439396373,-Infinity,Infinity,
0.0,1.8143724,1.6987985,-3.349433,-0.5411550708269752,-0.03778629500931119,-0.25636578133196863,-20238.66347324623,20603.253515266228,
0.0,1.2328287,1.0751051,-2.6713724,-0.5411550708269752,-0.03778629500931119,-0.25636578133196863,-Infinity,Infinity,
0.0,0.53155535,1.1190875,-2.0831091,-0.5345080625528758,0.023807329920514705,-0.2715407349151448,-27255.476224358004,26642.564451643608,
0.0,-0.07442293,1.3530488,-1.4985111,-0.5069992869434272,0.06619286370936114,-0.3139590043987277,-24786.95662977259,24630.56303788693,
0.0,-0.35175577,1.3316686,-1.0831227,-0.5069992869434272,0.06619286370936114,-0.3139590043987277,-Infinity,Infinity,
0.0,-0.35175577,1.2492017,-0.8387766,-0.4696596452589146,0.0847122784040028,-0.3636532360822647,-3923.769793059434,6134.55426576421,
0.0,-0.35175577,1.1355808,-0.5791589,-0.4696596452589146,0.0847122784040028,-0.3636532360822647,NaN,NaN,
0.0,-0.5704455,1.0421184,-0.5791589,-0.4314208097823619,0.08765967516901049,-0.4076664014193771,-5609.841198556541,3317.6773061189806,
0.0,-0.8825977,1.0744942,0.042701922,-0.3783274338379129,0.0751123211344672,-0.45959386487380616,-17025.76886062691,20725.562494752292,
0.0,-1.0279837,0.9645385,0.2296267,-0.3783274338379129,0.0751123211344672,-0.45959386487380616,-Infinity,Infinity,
0.0,-1.0279837,0.62611914,0.29865444,-0.33752315402998573,0.05810455735722578,-0.4926479569816579,-944.5080115662563,1827.5454617746561,
0.0,-1.0279837,0.33229297,0.3475237,-0.33752315402998573,0.05810455735722578,-0.4926479569816579,NaN,NaN,
0.0,-1.0279837,0.20462215,0.3786778,-0.31513456195656525,0.043328557019279436,-0.5087365453919158,-420.60896306112954,827.7283810687477,
0.0,-0.94062984,0.16063985,0.382343,-0.294488126195118,0.030909768202347192,-0.5218441897444058,2278.2554424794444,-1069.1842839538483,
0.0,-0.67184913,0.029914683,0.36157358,-0.294488126195118,0.030909768202347192,-0.5218441897444058,Infinity,-Infinity,
0.0,-0.27234325,-0.23336825,0.34874544,-0.3001323397268929,0.026576800563709858,-0.5188586328973315,10775.239048293997,-5759.989196529433,
0.0,0.0074330084,-0.3830302,0.3395824,-0.3001323397268929,0.026576800563709858,-0.5188586328973315,Infinity,-Infinity,
0.0,0.0074330084,-0.2779614,0.391506,-0.30934125286209974,0.02438938954588133,-0.5135301116444057,-717.2005491472494,1371.2050919615813,
0.0,-0.23446964,-0.2779614,0.48130316,-0.31523135838222727,0.01888163243518521,-0.51016928882412,-7619.155557746821,5760.4497859002495,
0.0,-0.4000141,-0.017732807,0.5155116,-0.31523135838222727,0.01888163243518521,-0.51016928882412,-Infinity,Infinity,
0.0,-0.45743546,-0.11730384,0.51978767,-0.3101551076786445,0.01118677746453995,-0.5134965372824216,-1566.2955074218432,925.3112374557506,
0.0,-0.45743546,-0.2144314,0.53261584,-0.3101551076786445,0.01118677746453995,-0.5134965372824216,NaN,NaN,
0.0,-0.6376407,-0.24558555,0.5784307,-0.30912040401048746,0.0010809867961010888,-0.5142406400724954,-5362.957406648187,3786.8545690353726,
0.0,-0.86182827,-0.25841373,0.64196074,-0.3052618973298119,-0.011408352106757712,-0.5164155808561954,-6751.990305982578,4924.295784887991,
0.0,-1.007825,-0.17533605,0.6364629,-0.3052618973298119,-0.011408352106757712,-0.5164155808561954,NaN,NaN,
0.0,-0.9015345,-0.25963545,0.58759373,-0.30113583266077903,-0.023813028818735368,-0.5184112060482561,3472.4097344208067,-2839.4911773968593,
0.0,-0.82212204,-0.41418436,0.59064806,-0.30113583266077903,-0.023813028818735368,-0.5184112060482561,NaN,NaN,
