Time,GyroX,GyroY,GyroZ,PosX,PosY,PosZ,TorPie,TorThe,
Started:
3.3554432E7,0.09173241,0.1930157,-0.03487796,-2.119208018586156E-6,-6.902070514884906E-4,0.5999996268498549,0.0,0.0,
3.3554432E7,0.02148291,0.26754126,-0.079471126,-8.475272449310978E-6,-0.0022666324642302226,0.5999957424146207,-2113.885292065832,-1361.1738477283839,
3.3554432E7,0.02148291,0.37261006,-0.25662205,-3.0815128553693246E-5,-0.007389663030190751,0.5999545153934239,-147.57708164099972,-5277.445830344873,
3.3554432E7,-0.082975045,0.42758796,-0.4172796,-9.72939293580878E-6,-0.015809514103032756,0.5997917036600248,-3312.7937511616874,-4915.341160171911,
3.3554432E7,-0.19659598,0.5021135,-0.642078,2.2229129435961527E-4,-0.02890633547728125,0.5993032646048955,-3776.304404970699,-6887.978553322855,
3.3554432E7,-0.3615296,0.52349377,-0.86809814,2.2229129435961527E-4,-0.02890633547728125,0.5993032646048955,-Infinity,-Infinity,
3.3554432E7,-0.5191328,0.5369329,-1.0605208,0.0014603843287232623,-0.050946346881049674,0.5978313856158091,-5125.058098421868,-6079.671284428847,
3.3554432E7,-0.5191328,0.5943542,-1.2584411,0.0014603843287232623,-0.050946346881049674,0.5978313856158091,NaN,NaN,
3.3554432E7,-0.5191328,0.73851836,-1.417266,0.004249122237477381,-0.08034107460908342,0.5945816052495223,-481.72541269114276,-4708.774462726633,
3.3554432E7,-0.60526484,0.88268256,-1.6927662,0.009730702414461773,-0.11536912015800474,0.5887234564332553,-3621.8735115626164,-8476.336292198002,
3.3554432E7,-0.7158314,1.0567791,-2.0195792,0.009730702414461773,-0.11536912015800474,0.5887234564332553,-Infinity,-Infinity,
3.3554432E7,-0.8422805,1.2168258,-2.2046714,0.021287715806902422,-0.16046576969351076,0.5777521947363106,-4658.883113554761,-6080.868667070435,
3.3554432E7,-0.8422805,1.3011253,-2.2895815,0.021287715806902422,-0.16046576969351076,0.5777521947363106,NaN,NaN,
3.3554432E7,-0.7408769,1.4129136,-2.3757136,0.03865955531928842,-0.20669845771675074,0.5619441386563806,2389.6545084677473,-1846.2412190886143,
3.3554432E7,-0.5808302,1.4959912,-2.4398544,0.06139683262954108,-0.2500487094509116,0.5419465845036979,4087.0789534420774,-570.027330800021,
3.3554432E7,-0.42322698,1.5729604,-2.5088823,0.06139683262954108,-0.2500487094509116,0.5419465845036979,NaN,NaN,
3.3554432E7,-0.33098632,1.6346577,-2.5498102,0.0889965079283097,-0.2890491727199249,0.5181990215512987,2215.9006993214057,-278.55648264406074,
3.3554432E7,-0.27417588,1.5778471,-2.5669143,0.0889965079283097,-0.2890491727199249,0.5181990215512987,NaN,NaN,
3.3554432E7,-0.27417588,1.4300178,-2.5840185,0.12099241228057739,-0.32200083933353896,0.49160586270838275,-185.67858805884958,-474.7228176612584,
3.3554432E7,-0.19720685,1.3548814,-2.5473666,0.1560954148834693,-0.3471985894863549,0.46377514974529765,2539.7860803530757,1929.912593730076,
3.3554432E7,-0.07014688,1.1905586,-2.423361,0.1560954148834693,-0.3471985894863549,0.46377514974529765,Infinity,Infinity,
3.3554432E7,0.03553281,1.1129788,-2.3573878,0.18818031948542535,-0.36432548264572295,0.4380127151847927,3693.370720569395,3151.474945709789,
3.3554432E7,0.15648413,1.1270287,-2.4679544,0.18818031948542535,-0.36432548264572295,0.4380127151847927,NaN,NaN,
3.3554432E7,0.15648413,1.1178657,-2.5931816,0.22379813841198073,-0.3767640841309814,0.40983319382707983,-1766.7819690998356,-3287.3646792279865,
3.3554432E7,0.15648413,1.1129788,-2.6170053,0.26168554312579373,-0.3819431566780352,0.3816282617888857,-359.2358970271592,-612.4160655579003,
3.3554432E7,0.15648413,1.0066882,-2.549199,0.26168554312579373,-0.3819431566780352,0.3816282617888857,NaN,NaN,
3.3554432E7,0.29209623,0.7293554,-2.510104,0.29476483696647326,-0.3841733875701616,0.3542944083403305,4048.906883800675,3119.834611379532,
3.3554432E7,0.29209623,0.57969344,-2.4972758,0.29476483696647326,-0.3841733875701616,0.3542944083403305,NaN,NaN,
3.3554432E7,0.22978796,0.5002809,-2.4068677,0.3262387246849767,-0.3834873829635417,0.32635218742016114,-103.62991393382903,1261.0242801988377,
3.3554432E7,0.22978796,0.4703485,-2.278586,0.3262387246849767,-0.3834873829635417,0.32635218742016114,NaN,NaN,
3.3554432E7,0.22978796,0.4391944,-2.178404,0.3543019818488316,-0.37920587281091067,0.30111964448361,1652.3964940998615,2486.7039933978103,
3.3554432E7,0.22978796,0.32068652,-2.1277025,0.38049731007548876,-0.3732784164303756,0.27547241143675094,849.7647090517457,1249.4396441305666,
3.3554432E7,0.12777346,0.3280169,-2.060507,0.38049731007548876,-0.3732784164303756,0.27547241143675094,NaN,NaN,
3.3554432E7,0.12777346,0.34328854,-1.9981989,0.4061461270417671,-0.36342247007224576,0.2509371641383367,1061.9092151781138,1523.3297440987612,
3.3554432E7,0.12777346,0.3671123,-1.9120669,0.4302201533753156,-0.35052777355498094,0.22812480839781116,1493.761128572392,2087.5380966572316,
3.3554432E7,0.12777346,0.36772317,-1.7972243,0.4302201533753156,-0.35052777355498094,0.22812480839781116,NaN,NaN,
3.3554432E7,0.12777346,0.46973768,-1.7110921,0.45197117383296553,-0.33401322799114713,0.21013626569732152,1526.4817874730015,2063.7411284083787,
3.3554432E7,0.12777346,0.50883305,-1.6335124,0.45197117383296553,-0.33401322799114713,0.21013626569732152,NaN,NaN,
3.3554432E7,0.12777346,0.48073325,-1.4740765,0.4703326168803315,-0.31648395620711167,0.196532856215505,2886.861313110072,3774.035781251521,
3.3554432E7,0.012930796,0.5002809,-1.2932603,0.4873838617251695,-0.2968552090843378,0.18529431933976004,662.1989582245243,2099.809972119808,
3.3554432E7,-0.072590336,0.4917288,-1.104503,0.4873838617251695,-0.2968552090843378,0.18529431933976004,NaN,NaN,
3.3554432E7,-0.072590336,0.4691268,-0.95911705,0.5008680703737619,-0.2782313344895073,0.17809696571947026,2742.995086573805,3354.024336217106,
3.3554432E7,-0.010892949,0.3982664,-0.7972378,0.5008680703737619,-0.2782313344895073,0.17809696571947026,Infinity,Infinity,
3.3554432E7,-0.010892949,0.31885394,-0.5852676,0.5085387252300549,-0.26605197215662457,0.17494210946250605,4051.327989652413,4847.0418489797,
3.3554432E7,0.04408492,0.19423743,-0.338478,0.5085387252300549,-0.26605197215662457,0.17494210946250605,Infinity,Infinity,
3.3554432E7,0.04408492,0.04152112,-0.08557978,0.5091429143561396,-0.26487361193464204,0.17497282952465346,4841.625724292446,5776.1871970125385,
3.3554432E7,0.04408492,-0.10019962,0.16609672,0.5065325264689703,-0.2690556012449384,0.1761644449879619,4798.882888878743,5764.450199381507,
3.3554432E7,0.04408492,-0.41784954,0.4751945,0.5065325264689703,-0.2690556012449384,0.1761644449879619,NaN,NaN,
3.3554432E7,0.04408492,-0.68418676,0.7445861,0.4944890916613641,-0.2908062768434995,0.17581887323769024,4993.674862918957,6286.4892087498265,
3.3554432E7,0.04408492,-0.9004331,1.0048147,0.47697800217596964,-0.3182006543711209,0.17674942039011401,4638.172012914912,6215.614464512385,
3.3554432E7,0.09845193,-1.1160685,1.2546586,0.47697800217596964,-0.3182006543711209,0.17674942039011401,Infinity,Infinity,
3.3554432E7,0.09845193,-1.3072693,1.4812895,0.4480680273016022,-0.35554460619923206,0.1811714782268825,3798.090658575939,5585.047122252286,
3.3554432E7,0.09845193,-1.4667052,1.7134184,0.4480680273016022,-0.35554460619923206,0.1811714782268825,NaN,NaN,
3.3554432E7,0.09845193,-1.594376,1.9791448,0.407381380380112,-0.3961035067715418,0.1927237698186491,4096.750649295987,6777.270550564141,
3.3554432E7,0.16625796,-1.7470922,2.2741926,0.407381380380112,-0.3961035067715418,0.1927237698186491,Infinity,Infinity,
3.3554432E7,0.16625796,-1.8943108,2.5747383,0.35196662802430984,-0.4354977199189376,0.21554873535429012,4137.308612948346,7944.167863764709,
3.3554432E7,0.265829,-2.103227,2.9724116,0.2856335636675513,-0.46523492309669656,0.24893766739490406,7441.54369549165,12053.042751475583,
3.3554432E7,0.3379111,-2.2907624,3.396352,0.2856335636675513,-0.46523492309669656,0.24893766739490406,Infinity,Infinity,
3.3554432E7,0.41121495,-2.4392025,3.9027596,0.20439036164961807,-0.47693304664703695,0.3012631369599403,6926.405702170861,14992.071330751054,
3.3554432E7,0.63295907,-2.6304035,4.3285327,0.20439036164961807,-0.47693304664703695,0.3012631369599403,Infinity,Infinity,
3.3554432E7,1.0807233,-2.9902031,4.6547346,0.10854372867235108,-0.46052079530775597,0.3689700322048459,15192.518058557054,12479.672623691471,
3.3554432E7,1.670819,-3.5778556,5.008425,0.019854476055553027,-0.4090210715208024,0.43852889464978717,18614.297479623325,12364.238991354685,
3.3554432E7,2.3531556,-4.4190173,5.227115,0.019854476055553027,-0.4090210715208024,0.43852889464978717,Infinity,Infinity,
3.3554432E7,2.5241978,-4.2094903,5.472072,-0.04489655818338956,-0.3252973583324063,0.5021612851818364,4847.050826044475,7123.29082596276,
3.3554432E7,3.234634,-4.752549,5.826374,-0.0705646823354899,-0.23218104415720828,0.548737293202485,18748.86749788547,6293.425585372043,
3.3554432E7,4.04342,-4.864338,6.0829377,-0.0705646823354899,-0.23218104415720828,0.548737293202485,NaN,NaN,
3.3554432E7,4.6237416,-4.7397213,6.0242944,-0.07185454391458576,-0.16118971883395708,0.5734586538463665,16835.277356277962,-7609.887251527834,
3.3554432E7,5.125873,-4.33655,5.956488,-0.07185454391458576,-0.16118971883395708,0.5734586538463665,Infinity,-Infinity,
3.3554432E7,5.66038,-3.8942838,5.9613757,-0.06941692863307397,-0.1283956505322704,0.5819758376030537,14039.010296412358,-7270.478905703137,
3.3554432E7,6.1246376,-3.4233067,6.045064,-0.06941692863307397,-0.1283956505322704,0.5819758376030537,NaN,NaN,
3.3554432E7,6.2614713,-2.8203826,6.1537976,-0.0706445864529004,-0.12064859742558176,0.583483750377308,1646.4516479969716,487.57302013797687,
3.3554432E7,6.199163,-2.397053,6.1537976,-0.0764493238525833,-0.13458373332149962,0.5796919425159888,-1469.0635140507663,1135.8038019422902,
3.3554432E7,6.3561554,-2.519226,6.4396825,-0.0764493238525833,-0.13458373332149962,0.5796919425159888,NaN,NaN,
3.3554432E7,6.5974474,-2.7153137,6.4769454,-0.08728553436872151,-0.18438838937828875,0.5642536539205372,4508.856125101982,-4084.713135676235,
3.3554432E7,6.7593265,-2.6310143,6.13425,-0.08728553436872151,-0.18438838937828875,0.5642536539205372,Infinity,-Infinity,
3.3554432E7,7.0439897,-2.442868,5.746351,-0.09875729768680833,-0.26983267750409584,0.5267232204059356,14257.990864389203,-14058.63418207064,
3.3554432E7,7.3689704,-2.2082956,5.3731117,-0.0916194130138036,-0.37534895985089106,0.4590414688327083,14729.863300338842,-14486.51391623763,
3.3554432E7,7.802074,-1.7024992,4.793401,-0.0916194130138036,-0.37534895985089106,0.4590414688327083,Infinity,-Infinity,
3.3554432E7,8.123388,-1.09591,4.073802,-0.10164370072910042,-0.46167448531320476,0.3694932425946523,22976.704063268346,-20356.94695413477,
3.3554432E7,8.365291,-0.34332398,3.423841,-0.10164370072910042,-0.46167448531320476,0.3694932425946523,Infinity,-Infinity,
3.3554432E7,8.642014,0.50577873,2.8398538,-0.1798238437443208,-0.48709817591718946,0.30066390014332417,18863.16863802615,-17059.473039104254,
3.3554432E7,8.820386,1.3328903,2.2741926,-0.30359810476101845,-0.4462784759198196,0.2620376715787841,16382.871973410474,-14834.372047477114,
3.3554432E7,9.004256,1.9620814,1.7653419,-0.30359810476101845,-0.4462784759198196,0.2620376715787841,Infinity,-Infinity,
3.3554432E7,9.597406,2.2956138,1.1068292,-0.45652735159341307,-0.2871783855540661,0.2628904348353024,26397.324248633537,-26347.792507261904,
3.3554432E7,10.074492,2.5558426,0.51856595,-0.45652735159341307,-0.2871783855540661,0.2628904348353024,Infinity,-Infinity,
3.3554432E7,10.155737,2.522245,-0.11917737,-0.5308792892144615,-0.02690651364205573,0.2782862706225517,14336.826336826241,-15898.959771090716,
3.3554432E7,9.834422,2.431226,-0.56938505,-0.4557885181473469,0.23572237839914537,0.3109530762946811,285.2287668650888,-5087.627630553937,
3.3554432E7,9.35978,2.4385564,-1.0678511,-0.4557885181473469,0.23572237839914537,0.3109530762946811,NaN,NaN,
3.3554432E7,8.798394,2.2351382,-1.5657063,-0.2686181066154126,0.40801128094134664,0.34838360471351454,-6247.191966541935,-3636.0018136783783,
3.3554432E7,8.260833,2.153893,-2.0770004,-0.2686181066154126,0.40801128094134664,0.34838360471351454,NaN,NaN,
3.3554432E7,7.6664615,1.9742987,-2.5424798,-0.05235268197042813,0.461692757692844,0.3796037707856839,-8978.605275670221,-3772.2371224488766,
3.3554432E7,6.6872444,1.9339817,-3.0067372,0.13606525852006177,0.4075727163451843,0.4187729157014656,-20733.01486673798,-377.6507736466748,
3.3554432E7,5.6115108,1.991403,-3.5913355,0.13606525852006177,0.4075727163451843,0.4187729157014656,NaN,NaN,
3.3554432E7,4.5095096,2.4959779,-4.06048,0.22953258804204535,0.25437853322171006,0.49255089226690285,-26123.107160181156,-1969.4304664297792,
3.3554432E7,3.742874,2.4061804,-3.893103,0.22953258804204535,0.25437853322171006,0.49255089226690285,-Infinity,Infinity,
3.3554432E7,2.8076394,1.959027,-3.1875534,0.21464458141102483,0.13599253823185933,0.5435381880110838,-32616.896911655047,27943.109632495845,
3.3554432E7,1.9866364,1.959027,-2.2846947,0.12361470146591226,0.04570539086406309,0.5853464371102695,-29662.114558376285,31522.628627074337,
3.3554432E7,1.8394178,0.99386007,-1.5137827,0.12361470146591226,0.04570539086406309,0.5853464371102695,-Infinity,Infinity,
3.3554432E7,1.7410686,0.7904419,-0.8998632,0.07975986322209773,0.020014536924635302,0.5943381286277322,-6321.280631321768,18520.932586010877,
3.3554432E7,1.2682589,0.59863025,-0.39895365,0.07975986322209773,0.020014536924635302,0.5943381286277322,-Infinity,Infinity,
3.3554432E7,0.7759015,0.48745275,-0.02999104,0.038367994000086024,0.007538155111904948,0.5987245626029954,-16346.612326947288,13356.79125510516,
3.3554432E7,0.6170765,0.40742943,0.21191159,0.038367994000086024,0.007538155111904948,0.5987245626029954,-Infinity,Infinity,
3.3554432E7,0.67388695,0.17774406,0.5313941,0.013542610632078806,0.0022612651606131024,0.5998429069242808,87.16844594461205,9107.534868742981,
3.3554432E7,0.67388695,0.019529972,0.7097668,-4.218293076654736E-6,-6.20600747998811E-7,0.6000000238267086,-880.0291448256911,5242.571480646128,
3.3554432E7,0.55660087,-0.0036829067,0.74702954,-4.218293076654736E-6,-6.20600747998811E-7,0.6000000238267086,-Infinity,Infinity,
3.3554432E7,0.3043135,0.07267525,0.65478885,-0.01890068786175945,-0.0025816531110231487,0.5996966964022703,-6969.548060576593,-1485.5453189966925,
3.3554432E7,0.05202617,0.07267525,0.5448331,-0.0364772547935002,-0.00488410487573541,0.5988702564099531,-6894.271961682639,-2025.8087570527002,
3.3554432E7,-0.11107485,0.028692951,0.51978767,-0.0364772547935002,-0.00488410487573541,0.5988702564099531,NaN,NaN,
3.3554432E7,-0.24180003,-0.08370625,0.5509418,-0.03991662079295466,-0.005977001335212301,0.5986409336570131,-3995.293644508444,1552.9754644223256,
3.3554432E7,-0.37496862,-0.14234932,0.6364629,-0.03991662079295466,-0.005977001335212301,0.5986409336570131,-Infinity,Infinity,
3.3554432E7,-0.4598789,-0.1496797,0.73114705,-0.04118064140596765,-0.0073321983243538605,0.5985402428002277,-2969.7162722912663,3207.7677460925333,
3.3554432E7,-0.4598789,-0.19305113,0.7708533,-0.039092785947037696,-0.008203219003553227,0.5986689317937828,-206.8948331564805,1165.1107447971785,
3.3554432E7,-0.51974374,-0.25963545,0.78368145,-0.039092785947037696,-0.008203219003553227,0.5986689317937828,-Infinity,Infinity,
3.3554432E7,-0.51974374,-0.30239603,0.82094425,-0.027901531732223494,-0.0070289800010875795,0.599309708395726,-205.24735352693904,1091.386059000552,
3.3554432E7,-0.4268922,-0.2767397,0.88752854,-0.027901531732223494,-0.0070289800010875795,0.599309708395726,NaN,NaN,
3.3554432E7,-0.4268922,-0.2376443,0.9528911,-0.02520232930224159,-0.0072862970834204534,0.5994262098730615,-375.2776540007008,1911.4656845917984,
3.3554432E7,-0.6846773,-0.13685153,0.98282355,-0.02520232930224159,-0.0072862970834204534,0.5994262098730615,-Infinity,Infinity,
3.3554432E7,-0.75065076,0.03907766,0.98404527,-0.04979988455795612,-0.01595490433063721,0.597716856995053,-1936.7931346877917,411.9920265704627,
3.3554432E7,-0.53379357,-0.15823181,1.0359689,-0.05607773296543839,-0.02011980931526852,0.597034764271566,6032.564866588194,246.82697111904452,
