Time,GyroX,GyroY,GyroZ,PosX,PosY,PosZ,TorPie,TorThe,
Started:
0.0,-0.044490535,-0.16434047,0.09645807,-2.9410864054923568E-6,0.0019468616284079748,0.5999968652679611,0.0,0.0,
0.0,-0.044490535,-0.20893362,0.08729509,-1.1398009238249495E-5,0.0037215455354048686,0.5999884820387332,3.420212748398756,-273.05658528997645,
0.0,-0.044490535,-0.22420526,0.05308663,-2.2355121278779867E-5,0.004821021571848882,0.5999806545726973,20.437480092032402,-1019.2867292698147,
0.0,-0.044490535,-0.2504725,0.020710776,-2.2355121278779867E-5,0.004821021571848882,0.5999806545726973,NaN,NaN,
0.0,-0.044490535,-0.28284833,0.026819427,-3.371455751919313E-5,0.0054114857476276,0.599975618917604,-5.37683262554439,181.97256597405107,
0.0,0.069741264,-0.3213328,0.026819427,-2.385022450019603E-5,0.005931037119448235,0.5999707083184017,3401.6057677180825,-137.23064989568124,
0.0,0.12227567,-0.35920647,-0.015330275,-2.385022450019603E-5,0.005931037119448235,0.5999707083184017,Infinity,-Infinity,
0.0,0.12227567,-0.28040487,-0.02999104,1.9083203578955146E-7,0.005223693738831574,0.5999772842649266,21.719257813984168,-436.38469824085803,
0.0,0.05202617,-0.139295,-0.06908642,1.9083203578955146E-7,0.005223693738831574,0.5999772842649266,NaN,NaN,
0.0,-0.02372112,-0.08004106,-0.06908642,-2.5479406915676786E-6,0.003858291797383893,0.5999876183623661,-2254.344783441565,118.27115429030232,
0.0,-0.02372112,-0.08004106,-0.08680151,-2.8070411762411107E-6,0.0021396871404791634,0.599996208605764,29.07607120368698,-527.149526389763,
0.0,-0.02372112,-0.103253946,-0.1643814,-2.8070411762411107E-6,0.0021396871404791634,0.599996208605764,NaN,NaN,
0.0,-0.13489859,-0.103253946,-0.25967637,1.5562418916111812E-5,-0.002918389114249719,0.5999929261024824,-3141.4330794461043,-2641.2037460757538,
0.0,-0.30777347,0.0042583416,-0.25967637,1.1767774672432179E-4,-0.007775098948134955,0.599949633384774,-5143.282821902208,300.82871023971103,
0.0,-0.5417349,0.12215533,-0.47286835,1.1767774672432179E-4,-0.007775098948134955,0.599949633384774,NaN,NaN,
0.0,-0.71155536,0.1227662,-0.62130857,7.399654745199948E-4,-0.019512698234385544,0.5996821955577307,-4813.4703541744475,-4142.643411244364,
0.0,-0.71155536,0.09405553,-0.84793955,7.399654745199948E-4,-0.019512698234385544,0.5996821955577307,NaN,NaN,
0.0,-0.71155536,0.02747122,-1.0373079,0.0023723614359491317,-0.03954293674641098,0.5986908690341924,301.12404362598534,-5635.576151644093,
0.0,-0.7934113,0.029303815,-1.2333956,0.0023723614359491317,-0.03954293674641098,0.5986908690341924,NaN,NaN,
0.0,-0.87099123,0.16186157,-1.4545288,0.005930860715594857,-0.06786522824416336,0.5961200921767106,-1993.5160718475802,-6471.886245046636,
0.0,-0.9815578,0.3023606,-1.6591687,0.01201453477247368,-0.10029956114487834,0.5914352691534179,-3062.2761772091208,-5969.843024109715,
0.0,-1.0322597,0.27487165,-1.9138994,0.01201453477247368,-0.10029956114487834,0.5914352691534179,NaN,NaN,
0.0,-1.0322597,0.23088935,-2.1576347,0.02187664060552571,-0.14182510666704523,0.5825865432061814,218.30379512824322,-7260.597267716471,
0.0,-1.1501566,0.4263662,-2.3274553,0.02187664060552571,-0.14182510666704523,0.5825865432061814,NaN,NaN,
0.0,-1.0053816,0.5027244,-2.4526827,0.036288850287491306,-0.1887857562478004,0.568368794175919,4363.478629840096,-3788.6493084914655,
0.0,-0.51730025,0.37810788,-2.5766883,0.05077380109649624,-0.23658107766133576,0.5490459392665102,14547.81084918959,-3702.9557037093164,
0.0,-0.16055493,0.25898913,-2.6634312,0.05077380109649624,-0.23658107766133576,0.5490459392665102,Infinity,-Infinity,
0.0,-0.043268807,0.21073079,-2.7568936,0.0627897813136857,-0.2856143265430346,0.5239102293773031,3477.0265296515795,-2762.3776691897997,
0.0,-0.117794365,0.2858672,-2.7752194,0.07662073312288264,-0.3321698376287541,0.49375347172007733,-2229.570637979122,-581.9728862470558,
0.0,-0.24057828,0.45874208,-2.70497,0.07662073312288264,-0.3321698376287541,0.49375347172007733,NaN,NaN,
0.0,-0.24057828,0.73851836,-2.6396074,0.09657229075700532,-0.3733414795009824,0.45966287750066576,79.73000817415908,1946.3205454678555,
0.0,-0.24057828,0.962095,-2.6426616,0.09657229075700532,-0.3733414795009824,0.45966287750066576,NaN,NaN,
0.0,-0.11596177,0.9749232,-2.6835897,0.12062496825771048,-0.4106252460841503,0.42051938471536293,3614.0329431973173,-943.1504432212439,
0.0,0.0691304,0.84297633,-2.7202418,0.12062496825771048,-0.4106252460841503,0.42051938471536293,NaN,NaN,
0.0,0.16686884,0.73790747,-2.70497,0.1410229335414025,-0.4435911854160162,0.3786019295339377,2943.457756169066,739.1386865192844,
0.0,0.09784106,0.75317913,-2.6304443,0.16442363682178654,-0.46978949250471647,0.3350563072032643,-1767.4584026238367,1950.2687466579575,
0.0,0.0025460862,0.7324097,-2.5443125,0.16442363682178654,-0.46978949250471647,0.3350563072032643,NaN,NaN,
0.0,-0.095803216,0.6322278,-2.4771173,0.19025656174669722,-0.4885285481008898,0.2917915814635369,-2611.1601496145386,1558.359570543009,
0.0,-0.2051481,0.55586964,-2.423361,0.19025656174669722,-0.4885285481008898,0.2917915814635369,NaN,NaN,
0.0,-0.29372358,0.5479284,-2.3867092,0.21898579247829333,-0.500535203256015,0.24801161586575673,-2427.0738364864474,648.6569040449004,
0.0,-0.29372358,0.55403703,-2.3213468,0.24845980810827964,-0.5065768989062391,0.2040774310392136,352.3378013489601,1915.8232208777306,
0.0,-0.29372358,0.5143308,-2.2309384,0.24845980810827964,-0.5065768989062391,0.2040774310392136,NaN,NaN,
0.0,-0.29372358,0.39582297,-2.1448066,0.274187806000739,-0.5083271146043721,0.16255651389201461,497.78417704105374,2518.199811012549,
0.0,-0.42017266,0.26937386,-2.0061402,0.298413969601071,-0.5059068137882943,0.12250480447613976,-2852.1729556437335,3282.5461621193394,
0.0,-0.4824809,0.24310666,-1.8803018,0.298413969601071,-0.5059068137882943,0.12250480447613976,NaN,NaN,
0.0,-0.4824809,0.26937386,-1.7495767,0.3216392072814037,-0.49903484384412927,0.0866745267024042,824.4675095817811,3807.675255257604,
0.0,-0.40062496,0.2388306,-1.6383991,0.3216392072814037,-0.49903484384412927,0.0866745267024042,Infinity,Infinity,
0.0,-0.33892757,0.1771332,-1.530887,0.3385870289699775,-0.49222755951100977,0.05541554007089435,2491.402585592434,3527.248241972933,
0.0,-0.33892757,0.16613764,-1.3867228,0.3385870289699775,-0.49222755951100977,0.05541554007089435,NaN,NaN,
0.0,-0.33892757,0.17957667,-1.2297304,0.3535115915450663,-0.48387300526381843,0.029941576953545528,1044.792322696267,4560.593081993937,
0.0,-0.33892757,0.182631,-1.0702945,0.3672412588857678,-0.47442252952491454,0.0075597527345865985,1089.416010484385,4624.985089208253,
0.0,-0.26745635,0.1948483,-0.91024786,0.3672412588857678,-0.47442252952491454,0.0075597527345865985,Infinity,Infinity,
0.0,-0.18254608,0.15575293,-0.72698826,0.37621109687174975,-0.467344255563624,-0.00738823337930166,3740.016233945958,5902.509326428157,
0.0,-0.18254608,0.089779474,-0.6054261,0.37621109687174975,-0.467344255563624,-0.00738823337930166,NaN,NaN,
0.0,-0.18254608,0.011588724,-0.4948595,0.3809138184829987,-0.4632315978369217,-0.01792144705049138,773.4925231425849,3203.071002779663,
0.0,-0.18254608,-0.06965636,-0.38551462,0.3832942198481618,-0.4608573723313346,-0.02638279759761376,757.5399169803499,3169.457589818108,
0.0,-0.18254608,-0.12768856,-0.27922407,0.3832942198481618,-0.4608573723313346,-0.02638279759761376,NaN,NaN,
0.0,-0.18254608,-0.16006441,-0.1643814,0.38287896673438265,-0.4609448977473006,-0.030553668901985125,777.7385674051679,3333.041313651292,
0.0,-0.18254608,-0.17228171,-0.03915402,0.38287896673438265,-0.4609448977473006,-0.030553668901985125,NaN,NaN,
0.0,-0.18254608,-0.16983825,0.07324518,0.381539648462121,-0.46208978998226574,-0.030009186189844366,742.5883694904652,3266.410397811935,
0.0,-0.18254608,-0.17167085,0.18320093,0.381539648462121,-0.46208978998226574,-0.030009186189844366,NaN,NaN,
0.0,-0.18254608,-0.19610545,0.34263676,0.37885533557199763,-0.4646375970047146,-0.024094953175792425,1022.8346615571893,4640.1632658724175,
0.0,-0.18254608,-0.24680728,0.4892444,0.37460191973234036,-0.4684482425182138,-0.015155013186136783,905.1700092749668,4274.4585610845,
0.0,-0.18254608,-0.2767397,0.66700625,0.37460191973234036,-0.4684482425182138,-0.015155013186136783,NaN,NaN,
0.0,-0.18254608,-0.3555413,0.85393095,0.3667470989840993,-0.4748631203103855,0.0012692383785797483,1088.9932742892313,5463.313595814357,
0.0,-0.12817907,-0.52291834,1.0261949,0.3667470989840993,-0.4748631203103855,0.0012692383785797483,Infinity,Infinity,
0.0,-0.12817907,-0.7190061,1.2326674,0.3483748449139535,-0.48778786417129977,0.02641960651884424,1056.9489106379021,6061.905995089687,
0.0,-0.18498954,-0.8839397,1.4800678,0.3260336300986057,-0.5003770598949688,0.05766193359420297,-625.3114431121334,7056.660841794396,
0.0,-0.18498954,-1.0671993,1.7042553,0.3260336300986057,-0.5003770598949688,0.05766193359420297,NaN,NaN,
0.0,0.10272799,-1.2693957,1.8862932,0.2882472983851811,-0.5165640905657382,0.10037461791641493,9075.103393981106,6257.038505231909,
0.0,0.4368713,-1.39951,2.0432856,0.24118041634386495,-0.5289815959105351,0.14835938315581346,10193.819565470081,5203.685550132055,
0.0,0.76246244,-1.4496009,2.277247,0.24118041634386495,-0.5289815959105351,0.14835938315581346,Infinity,Infinity,
0.0,0.95977193,-1.5210721,2.5008237,0.18228877888814563,-0.5332683786544768,0.20590207873871572,5896.065450948975,6677.03311086416,
0.0,1.0697277,-1.5870457,2.7115722,0.18228877888814563,-0.5332683786544768,0.20590207873871572,Infinity,Infinity,
0.0,1.0697277,-1.5705522,2.9186556,0.12424054807138663,-0.5216940515032326,0.26907179609036336,-310.4690825854795,6163.753914807705,
0.0,1.0697277,-1.5448959,3.138567,0.12424054807138663,-0.5216940515032326,0.26907179609036336,NaN,NaN,
0.0,1.0697277,-1.739762,3.3529806,0.0711525130402808,-0.4917371270122816,0.33635092747900963,-693.2560664340502,6352.307396428861,
0.0,1.2273309,-2.0396967,3.5533445,0.023783933738720193,-0.4455538744945609,0.40114348808004757,3571.1748247470487,5050.166385269359,
0.0,1.3458388,-2.2443366,3.8080752,0.023783933738720193,-0.4455538744945609,0.40114348808004757,NaN,NaN,
0.0,1.4069253,-2.3096993,4.05853,-0.011027021937035631,-0.3806869340697996,0.4636333590521353,-118.42092075627386,6764.837641380809,
0.0,1.4069253,-2.420266,4.1965857,-0.011027021937035631,-0.3806869340697996,0.4636333590521353,NaN,NaN,
0.0,1.5663611,-2.624295,4.184979,-0.03046914429612977,-0.30674596464796133,0.5147606949139409,4591.488669628683,-1922.4747565365913,
0.0,1.8375853,-2.8014457,4.135499,-0.03642541020917106,-0.23532329615945516,0.5507233101894027,7948.216155067108,-4755.015867786898,
0.0,2.3036757,-3.0842764,4.0927386,-0.03642541020917106,-0.23532329615945516,0.5507233101894027,Infinity,-Infinity,
0.0,2.8210783,-3.3506136,4.0328736,-0.03897677484408274,-0.17982802897874148,0.5710890645307478,14083.96699484777,-9570.123331132923,
0.0,3.3360379,-3.640164,3.9369678,-0.03897677484408274,-0.17982802897874148,0.5710890645307478,Infinity,-Infinity,
0.0,3.6323073,-3.6450505,3.8086863,-0.04089564982695447,-0.15349991276137753,0.5785891039569537,9291.263901256409,-8486.16028607577,
0.0,3.8583274,-3.5693033,3.8086863,-0.04178465281820492,-0.15324314634123934,0.5785936479935894,4735.279537120693,-4790.594680932108,
0.0,4.2346206,-3.615729,3.7249975,-0.04178465281820492,-0.15324314634123934,0.5785936479935894,Infinity,-Infinity,
0.0,4.712317,-3.3506136,3.7897494,-0.04703484036168005,-0.1876323209063115,0.5679629077269855,7292.978055900873,-9989.82387628324,
0.0,5.1906247,-3.2339382,3.909479,-0.04703484036168005,-0.1876323209063115,0.5679629077269855,NaN,NaN,
0.0,5.495446,-2.8784149,4.132445,-0.04812048409689513,-0.24948840539921854,0.5435439110061538,-685.6094201397971,-4056.2655877717157,
0.0,5.495446,-2.1844718,4.484303,-0.031742746139944454,-0.3185482978577629,0.5074637017656013,-9216.131789184657,5002.308382159274,
0.0,5.3335667,-1.5833803,4.864872,-0.031742746139944454,-0.3185482978577629,0.5074637017656013,-Infinity,Infinity,
0.0,5.2230005,-1.2278568,5.162975,0.00573219960482484,-0.37325824727651796,0.4697291254946645,-9427.350350954954,6871.195201957537,
0.0,5.301802,-1.0378778,5.3358493,0.00573219960482484,-0.37325824727651796,0.4697291254946645,NaN,NaN,
0.0,5.682982,-1.0238279,5.441529,0.06107926256106578,-0.4264890825208626,0.4175840212289489,1776.5381160477934,-9075.509887720646,
0.0,6.1777825,-1.114236,5.3217993,0.13698595670584238,-0.47464519384005116,0.3405096419195136,8836.947633014915,-15008.307684240091,
0.0,6.6200495,-0.7837578,4.996208,0.13698595670584238,-0.47464519384005116,0.3405096419195136,Infinity,-Infinity,
0.0,6.6200495,-0.2865135,4.6999383,0.19206835670149386,-0.5072487242127277,0.2565316876114487,8216.832324648558,-3231.7614676658636,
0.0,6.6200495,0.22050464,4.3102064,0.19206835670149386,-0.5072487242127277,0.2565316876114487,NaN,NaN,
0.0,6.8277435,0.46973768,3.8062427,0.2034481868457374,-0.5353033155811406,0.17905089837040694,16244.758688229955,-11440.753118229264,
0.0,7.369581,0.35611674,3.1513953,0.19705879665205445,-0.5606618306765201,0.08262064448264429,24281.389051773887,-22501.602996760732,
0.0,8.061081,0.21378513,2.4660044,0.19705879665205445,-0.5606618306765201,0.08262064448264429,Infinity,-Infinity,
0.0,8.572375,0.19362657,1.9082844,0.1574951205151959,-0.5765842481548418,-0.0524015305487333,21309.85108522968,-20590.503224614495,
0.0,8.860703,0.3671123,1.4354748,0.1574951205151959,-0.5765842481548418,-0.0524015305487333,Infinity,-Infinity,
0.0,9.026247,0.6310061,0.9583889,0.06409231879093331,-0.5690278089522418,-0.17916348936444185,14980.428768150352,-10412.798213447959,
0.0,9.177742,0.6236757,0.2687221,-0.039807566616416434,-0.5170981801737329,-0.3017032620163782,20466.272409775975,-13022.66820532702,
0.0,9.177742,0.31335616,-0.36352345,-0.039807566616416434,-0.5170981801737329,-0.3017032620163782,NaN,NaN,
0.0,8.644457,0.41292718,-0.8827589,-0.11924034262941621,-0.41643899792725025,-0.41516301654313714,6706.865841526527,7268.859286994496,
0.0,7.882097,0.7647856,-1.2370608,-0.11924034262941621,-0.41643899792725025,-0.41516301654313714,NaN,NaN,
0.0,7.340259,1.1105353,-1.530887,-0.20144331863492326,-0.31167285500997993,-0.4714664881383478,-96.59028565993478,9939.800276127666,
0.0,6.6890774,1.6371012,-1.7159791,-0.2762311495585537,-0.20000405761372056,-0.49365449209121715,-5578.481378926644,13555.950453555783,
0.0,5.797214,2.6798482,-2.1820693,-0.2762311495585537,-0.20000405761372056,-0.49365449209121715,NaN,NaN,
0.0,4.545551,3.184423,-1.7422464,-0.4227459252894326,-0.03531815401800967,-0.4243094852323851,-33309.89681208336,37455.683362764,
0.0,3.5779405,3.5515528,-1.4252073,-0.4227459252894326,-0.03531815401800967,-0.4243094852323851,-Infinity,Infinity,
0.0,2.9279797,3.6382957,-1.2040741,-0.4801252378525227,0.24125093427418037,-0.26697897164219453,-18362.52234017023,18351.331967066108,
0.0,2.5162566,3.364628,-0.9566736,-0.34800866478375203,0.48370256686562546,-0.07015571718160435,-14192.842723358763,13408.345435284531,
0.0,2.5162566,2.2436905,-0.7166036,-0.34800866478375203,0.48370256686562546,-0.07015571718160435,NaN,NaN,
0.0,2.976238,0.7788355,-0.478977,-0.2579497748834488,0.5391382427466559,-0.0528384089073108,6686.49742529767,-2593.824043927273,
0.0,2.976238,0.744627,-0.34764096,-0.2579497748834488,0.5391382427466559,-0.0528384089073108,NaN,NaN,
0.0,2.4930437,1.4721675,-0.2993826,-0.12357892938052369,0.5861851040825659,0.03339611616797794,-12722.430073371703,9277.554206292958,
0.0,2.0691032,1.5192041,-0.28838703,-0.12357892938052369,0.5861851040825659,0.03339611616797794,-Infinity,Infinity,
0.0,1.7429011,1.1911695,-0.21263975,-0.01506880722657797,0.5895576976174687,0.11042952883621203,-9447.489183928386,7051.084455838433,
0.0,1.5480351,0.894289,-0.117344774,0.06641572515261623,0.5722374819357255,0.1677296763561606,-6448.15431834347,5373.2447791472405,
0.0,1.3550017,0.7153055,0.0097152,0.06641572515261623,0.5722374819357255,0.1677296763561606,-Infinity,Infinity,
0.0,1.1473075,0.66704714,0.028041158,0.12116304662991466,0.5477597714052452,0.21278810486411306,-5683.898523246114,3467.4367422027963,
0.0,1.0355191,0.55586964,-0.043430075,0.16431356960825766,0.5208352624487165,0.24845866626624039,-1953.148675310942,-329.83109363839344,
0.0,0.9194548,0.41475978,-0.0623669,0.16431356960825766,0.5208352624487165,0.24845866626624039,NaN,NaN,
0.0,0.6812174,0.33840165,0.032317214,0.18835678423468732,0.5012954794158182,0.27060043008144413,-7605.270102698195,5751.422170840402,
0.0,0.40388456,0.23333281,0.16915104,0.18835678423468732,0.5012954794158182,0.27060043008144413,-Infinity,Infinity,
0.0,0.19741209,0.23333281,0.26750034,0.19667340082166615,0.48596365110142964,0.29182003328702144,-6814.183597734364,5383.96139408678,
0.0,0.19741209,0.036023334,0.29926533,0.1978228380413822,0.4818572162387676,0.29779149839797087,-424.46293114122165,846.1772111380452,
0.0,0.19741209,-0.12463422,0.36829308,0.1978228380413822,0.4818572162387676,0.29779149839797087,NaN,NaN,
0.0,0.11555616,-0.29995254,0.468475,0.18471684747680506,0.4972215745092487,0.28044682332129295,-3534.898005764954,3770.805125817834,
0.0,-0.0017299703,-0.4025779,0.5332267,0.18471684747680506,0.4972215745092487,0.28044682332129295,-Infinity,Infinity,
0.0,-0.091527164,-0.50947934,0.577209,0.15691530296344666,0.5227919368628494,0.2491309034570185,-2977.9288224032757,2419.6797287173117,
0.0,-0.17643742,-0.52902704,0.6199696,0.15691530296344666,0.5227919368628494,0.2491309034570185,-Infinity,Infinity,
0.0,-0.28700402,-0.52841616,0.6566215,0.12025727573621721,0.5456917596560795,0.21853768481931257,-3409.165379685141,2561.540197829807,
0.0,-0.48614612,-0.52841616,0.6731149,0.07639001838471036,0.5640966266523726,0.1896301386932664,-5375.41199645201,3412.5320158620116,
0.0,-0.65718836,-0.28284833,0.6682279,0.07639001838471036,0.5640966266523726,0.1896301386932664,NaN,NaN,
0.0,-0.83495015,-0.24069862,0.6303543,0.041783070606222036,0.5683400475798093,0.18773330535077037,-3979.6227997455762,1733.293541493767,
0.0,-0.97606003,-0.26513323,0.5759873,0.003471573172748241,0.5709320802412039,0.18445741118585587,-2757.8188305737594,792.5868238030189,
0.0,-1.1965824,-0.3213328,0.48619008,0.003471573172748241,0.5709320802412039,0.18445741118585587,NaN,NaN,
